,age,response_side,impaired_vision,experience,gender,session_id,inner_width,trial_no,filename,scene_id,red_count,blue_count,version,response_time,expected_side,browser,screen_w,screen_h,os,exp_start_date,exp_start_time,favorite_team,favorite_color,subject_id,is_correct
0,23,red,no,never,female,1697797568418,1512,0,id17_v1_b6_r5.jpg,17,5,6,1,2739,blue,Netscape,1512,982,MacIntel,20-09-23,12:26:00,other,other,444707,0.0
1,23,blue,no,never,female,1697797568418,1512,1,id10_v2_b7_r6.jpg,10,6,7,2,791,blue,Netscape,1512,982,MacIntel,20-09-23,12:26:00,other,other,444707,1.0
2,23,blue,no,never,female,1697797568418,1512,2,id12_v1_b7_r6.jpg,12,6,7,1,1010,blue,Netscape,1512,982,MacIntel,20-09-23,12:26:00,other,other,444707,1.0
3,23,blue,no,never,female,1697797568418,1512,3,id20_v1_b7_r6.jpg,20,6,7,1,1189,blue,Netscape,1512,982,MacIntel,20-09-23,12:26:00,other,other,444707,1.0
4,23,red,no,never,female,1697797568418,1512,4,id5_v2_b7_r6.jpg,5,6,7,2,927,blue,Netscape,1512,982,MacIntel,20-09-23,12:26:00,other,other,444707,0.0
5,23,red,no,never,female,1697797568418,1512,5,id22_v1_b6_r7.jpg,22,7,6,1,945,red,Netscape,1512,982,MacIntel,20-09-23,12:26:00,other,other,444707,1.0
6,23,red,no,never,female,1697797568418,1512,6,id8_v2_b5_r6.jpg,8,6,5,2,661,red,Netscape,1512,982,MacIntel,20-09-23,12:26:00,other,other,444707,1.0
7,23,blue,no,never,female,1697797568418,1512,7,id7_v2_b7_r6.jpg,7,6,7,2,962,blue,Netscape,1512,982,MacIntel,20-09-23,12:26:00,other,other,444707,1.0
8,23,red,no,never,female,1697797568418,1512,8,id1_v2_b5_r7.jpg,1,7,5,2,1286,red,Netscape,1512,982,MacIntel,20-09-23,12:26:00,other,other,444707,1.0
9,23,blue,no,never,female,1697797568418,1512,9,id15_v2_b8_r6.jpg,15,6,8,2,942,blue,Netscape,1512,982,MacIntel,20-09-23,12:26:00,other,other,444707,1.0
10,23,red,no,never,female,1697797568418,1512,10,id24_v2_b6_r7.jpg,24,7,6,2,1044,red,Netscape,1512,982,MacIntel,20-09-23,12:26:00,other,other,444707,1.0
11,23,blue,no,never,female,1697797568418,1512,11,id26_v1_b7_r6.jpg,26,6,7,1,770,blue,Netscape,1512,982,MacIntel,20-09-23,12:26:00,other,other,444707,1.0
12,23,blue,no,never,female,1697797568418,1512,12,id27_v2_b6_r7.jpg,27,7,6,2,720,red,Netscape,1512,982,MacIntel,20-09-23,12:26:00,other,other,444707,0.0
13,23,blue,no,never,female,1697797568418,1512,13,id16_v2_b7_r6.jpg,16,6,7,2,1027,blue,Netscape,1512,982,MacIntel,20-09-23,12:26:00,other,other,444707,1.0
14,23,blue,no,never,female,1697797568418,1512,14,id28_v2_b7_r6.jpg,28,6,7,2,727,blue,Netscape,1512,982,MacIntel,20-09-23,12:26:00,other,other,444707,1.0
15,23,blue,no,never,female,1697797568418,1512,15,id6_v1_b7_r5.jpg,6,5,7,1,678,blue,Netscape,1512,982,MacIntel,20-09-23,12:26:00,other,other,444707,1.0
16,23,blue,no,never,female,1697797568418,1512,16,id23_v1_b5_r6.jpg,23,6,5,1,696,red,Netscape,1512,982,MacIntel,20-09-23,12:26:00,other,other,444707,0.0
17,23,blue,no,never,female,1697797568418,1512,17,id19_v2_b7_r6.jpg,19,6,7,2,1043,blue,Netscape,1512,982,MacIntel,20-09-23,12:26:00,other,other,444707,1.0
18,23,blue,no,never,female,1697797568418,1512,18,id11_v1_b5_r6.jpg,11,6,5,1,1178,red,Netscape,1512,982,MacIntel,20-09-23,12:26:00,other,other,444707,0.0
19,23,red,no,never,female,1697797568418,1512,19,id21_v1_b6_r7.jpg,21,7,6,1,863,red,Netscape,1512,982,MacIntel,20-09-23,12:26:00,other,other,444707,1.0
20,23,red,no,never,female,1697797568418,1512,20,id18_v2_b5_r7.jpg,18,7,5,2,1112,red,Netscape,1512,982,MacIntel,20-09-23,12:26:00,other,other,444707,1.0
21,23,blue,no,never,female,1697797568418,1512,21,id13_v2_b6_r5.jpg,13,5,6,2,1115,blue,Netscape,1512,982,MacIntel,20-09-23,12:26:00,other,other,444707,1.0
22,23,red,no,never,female,1697797568418,1512,22,id30_v2_b6_r7.jpg,30,7,6,2,1114,red,Netscape,1512,982,MacIntel,20-09-23,12:26:00,other,other,444707,1.0
23,23,blue,no,never,female,1697797568418,1512,23,id4_v2_b6_r5.jpg,4,5,6,2,818,blue,Netscape,1512,982,MacIntel,20-09-23,12:26:00,other,other,444707,1.0
24,23,blue,no,never,female,1697797568418,1512,24,id29_v2_b6_r7.jpg,29,7,6,2,1043,red,Netscape,1512,982,MacIntel,20-09-23,12:26:00,other,other,444707,0.0
25,23,blue,no,never,female,1697797568418,1512,25,id14_v2_b6_r7.jpg,14,7,6,2,1003,red,Netscape,1512,982,MacIntel,20-09-23,12:26:00,other,other,444707,0.0
26,23,red,no,never,female,1697797568418,1512,26,id25_v2_b6_r7.jpg,25,7,6,2,711,red,Netscape,1512,982,MacIntel,20-09-23,12:26:00,other,other,444707,1.0
27,23,red,no,never,female,1697797568418,1512,27,id3_v2_b6_r7.jpg,3,7,6,2,903,red,Netscape,1512,982,MacIntel,20-09-23,12:26:00,other,other,444707,1.0
28,23,blue,no,never,female,1697797568418,1512,28,id9_v1_b7_r5.jpg,9,5,7,1,1050,blue,Netscape,1512,982,MacIntel,20-09-23,12:26:00,other,other,444707,1.0
29,23,red,no,never,female,1697797568418,1512,29,id2_v2_b5_r6.jpg,2,6,5,2,896,red,Netscape,1512,982,MacIntel,20-09-23,12:26:00,other,other,444707,1.0
30,23,red,no,never,female,1697797568418,1512,30,id20_v2_b6_r7.jpg,20,7,6,2,659,red,Netscape,1512,982,MacIntel,20-09-23,12:26:00,other,other,444707,1.0
31,23,blue,no,never,female,1697797568418,1512,31,id22_v2_b7_r6.jpg,22,6,7,2,759,blue,Netscape,1512,982,MacIntel,20-09-23,12:26:00,other,other,444707,1.0
32,23,blue,no,never,female,1697797568418,1512,32,id15_v1_b6_r8.jpg,15,8,6,1,547,red,Netscape,1512,982,MacIntel,20-09-23,12:26:00,other,other,444707,0.0
33,23,red,no,never,female,1697797568418,1512,33,id10_v1_b6_r7.jpg,10,7,6,1,1132,red,Netscape,1512,982,MacIntel,20-09-23,12:26:00,other,other,444707,1.0
34,23,blue,no,never,female,1697797568418,1512,34,id17_v2_b5_r6.jpg,17,6,5,2,665,red,Netscape,1512,982,MacIntel,20-09-23,12:26:00,other,other,444707,0.0
35,23,red,no,never,female,1697797568418,1512,35,id5_v1_b6_r7.jpg,5,7,6,1,742,red,Netscape,1512,982,MacIntel,20-09-23,12:26:00,other,other,444707,1.0
36,23,blue,no,never,female,1697797568418,1512,36,id12_v2_b6_r7.jpg,12,7,6,2,634,red,Netscape,1512,982,MacIntel,20-09-23,12:26:00,other,other,444707,0.0
37,23,blue,no,never,female,1697797568418,1512,37,id16_v1_b6_r7.jpg,16,7,6,1,734,red,Netscape,1512,982,MacIntel,20-09-23,12:26:00,other,other,444707,0.0
38,23,red,no,never,female,1697797568418,1512,38,id7_v1_b6_r7.jpg,7,7,6,1,678,red,Netscape,1512,982,MacIntel,20-09-23,12:26:00,other,other,444707,1.0
39,23,blue,no,never,female,1697797568418,1512,39,id26_v2_b6_r7.jpg,26,7,6,2,753,red,Netscape,1512,982,MacIntel,20-09-23,12:26:00,other,other,444707,0.0
40,23,red,no,never,female,1697797568418,1512,40,id8_v1_b6_r5.jpg,8,5,6,1,817,blue,Netscape,1512,982,MacIntel,20-09-23,12:26:00,other,other,444707,0.0
41,23,blue,no,never,female,1697797568418,1512,41,id1_v1_b7_r5.jpg,1,5,7,1,687,blue,Netscape,1512,982,MacIntel,20-09-23,12:26:00,other,other,444707,1.0
42,23,blue,no,never,female,1697797568418,1512,42,id24_v1_b7_r6.jpg,24,6,7,1,1912,blue,Netscape,1512,982,MacIntel,20-09-23,12:26:00,other,other,444707,1.0
43,23,blue,no,never,female,1697797568418,1512,43,id27_v1_b7_r6.jpg,27,6,7,1,570,blue,Netscape,1512,982,MacIntel,20-09-23,12:26:00,other,other,444707,1.0
44,23,red,no,never,female,1697797568418,1512,44,id28_v1_b6_r7.jpg,28,7,6,1,611,red,Netscape,1512,982,MacIntel,20-09-23,12:26:00,other,other,444707,1.0
45,23,red,no,never,female,1697797568418,1512,45,id9_v2_b5_r7.jpg,9,7,5,2,900,red,Netscape,1512,982,MacIntel,20-09-23,12:26:00,other,other,444707,1.0
46,23,blue,no,never,female,1697797568418,1512,46,id23_v2_b6_r5.jpg,23,5,6,2,683,blue,Netscape,1512,982,MacIntel,20-09-23,12:26:00,other,other,444707,1.0
47,23,blue,no,never,female,1697797568418,1512,47,id3_v1_b7_r6.jpg,3,6,7,1,622,blue,Netscape,1512,982,MacIntel,20-09-23,12:26:00,other,other,444707,1.0
48,23,blue,no,never,female,1697797568418,1512,48,id25_v1_b7_r6.jpg,25,6,7,1,617,blue,Netscape,1512,982,MacIntel,20-09-23,12:26:00,other,other,444707,1.0
49,23,blue,no,never,female,1697797568418,1512,49,id11_v2_b6_r5.jpg,11,5,6,2,666,blue,Netscape,1512,982,MacIntel,20-09-23,12:26:00,other,other,444707,1.0
50,23,blue,no,never,female,1697797568418,1512,50,id4_v1_b5_r6.jpg,4,6,5,1,835,red,Netscape,1512,982,MacIntel,20-09-23,12:26:00,other,other,444707,0.0
51,23,red,no,never,female,1697797568418,1512,51,id6_v2_b5_r7.jpg,6,7,5,2,654,red,Netscape,1512,982,MacIntel,20-09-23,12:26:00,other,other,444707,1.0
52,23,red,no,never,female,1697797568418,1512,52,id13_v1_b5_r6.jpg,13,6,5,1,946,red,Netscape,1512,982,MacIntel,20-09-23,12:26:00,other,other,444707,1.0
53,23,red,no,never,female,1697797568418,1512,53,id29_v1_b7_r6.jpg,29,6,7,1,1037,blue,Netscape,1512,982,MacIntel,20-09-23,12:26:00,other,other,444707,0.0
54,23,blue,no,never,female,1697797568418,1512,54,id18_v1_b7_r5.jpg,18,5,7,1,920,blue,Netscape,1512,982,MacIntel,20-09-23,12:26:00,other,other,444707,1.0
55,23,red,no,never,female,1697797568418,1512,55,id19_v1_b6_r7.jpg,19,7,6,1,1136,red,Netscape,1512,982,MacIntel,20-09-23,12:26:00,other,other,444707,1.0
56,23,blue,no,never,female,1697797568418,1512,56,id21_v2_b7_r6.jpg,21,6,7,2,910,blue,Netscape,1512,982,MacIntel,20-09-23,12:26:00,other,other,444707,1.0
57,23,blue,no,never,female,1697797568418,1512,57,id14_v1_b7_r6.jpg,14,6,7,1,737,blue,Netscape,1512,982,MacIntel,20-09-23,12:26:00,other,other,444707,1.0
58,23,red,no,never,female,1697797568418,1512,58,id30_v1_b7_r6.jpg,30,6,7,1,934,blue,Netscape,1512,982,MacIntel,20-09-23,12:26:00,other,other,444707,0.0
59,23,blue,no,never,female,1697797568418,1512,59,id2_v1_b6_r5.jpg,2,5,6,1,627,blue,Netscape,1512,982,MacIntel,20-09-23,12:26:00,other,other,444707,1.0
60,38,blue,no,more,male,1697622184937,2419,0,id17_v1_b6_r5.jpg,17,5,6,1,1085,blue,Netscape,2560,1440,Win32,18-09-23,11:42:55,red,other,442242,1.0
61,38,blue,no,more,male,1697622184937,2419,1,id10_v2_b7_r6.jpg,10,6,7,2,389,blue,Netscape,2560,1440,Win32,18-09-23,11:42:55,red,other,442242,1.0
62,38,red,no,more,male,1697622184937,2419,2,id12_v1_b7_r6.jpg,12,6,7,1,576,blue,Netscape,2560,1440,Win32,18-09-23,11:42:55,red,other,442242,0.0
63,38,red,no,more,male,1697622184937,2419,3,id20_v1_b7_r6.jpg,20,6,7,1,428,blue,Netscape,2560,1440,Win32,18-09-23,11:42:55,red,other,442242,0.0
64,38,blue,no,more,male,1697622184937,2419,4,id5_v2_b7_r6.jpg,5,6,7,2,744,blue,Netscape,2560,1440,Win32,18-09-23,11:42:55,red,other,442242,1.0
65,38,red,no,more,male,1697622184937,2419,5,id22_v1_b6_r7.jpg,22,7,6,1,429,red,Netscape,2560,1440,Win32,18-09-23,11:42:55,red,other,442242,1.0
66,38,red,no,more,male,1697622184937,2419,6,id8_v2_b5_r6.jpg,8,6,5,2,495,red,Netscape,2560,1440,Win32,18-09-23,11:42:55,red,other,442242,1.0
67,38,blue,no,more,male,1697622184937,2419,7,id7_v2_b7_r6.jpg,7,6,7,2,703,blue,Netscape,2560,1440,Win32,18-09-23,11:42:55,red,other,442242,1.0
68,38,red,no,more,male,1697622184937,2419,8,id1_v2_b5_r7.jpg,1,7,5,2,518,red,Netscape,2560,1440,Win32,18-09-23,11:42:55,red,other,442242,1.0
69,38,red,no,more,male,1697622184937,2419,9,id15_v2_b8_r6.jpg,15,6,8,2,1664,blue,Netscape,2560,1440,Win32,18-09-23,11:42:55,red,other,442242,0.0
70,38,blue,no,more,male,1697622184937,2419,10,id24_v2_b6_r7.jpg,24,7,6,2,914,red,Netscape,2560,1440,Win32,18-09-23,11:42:55,red,other,442242,0.0
71,38,blue,no,more,male,1697622184937,2419,11,id26_v1_b7_r6.jpg,26,6,7,1,712,blue,Netscape,2560,1440,Win32,18-09-23,11:42:55,red,other,442242,1.0
72,38,red,no,more,male,1697622184937,2419,12,id27_v2_b6_r7.jpg,27,7,6,2,376,red,Netscape,2560,1440,Win32,18-09-23,11:42:55,red,other,442242,1.0
73,38,red,no,more,male,1697622184937,2419,13,id16_v2_b7_r6.jpg,16,6,7,2,542,blue,Netscape,2560,1440,Win32,18-09-23,11:42:55,red,other,442242,0.0
74,38,blue,no,more,male,1697622184937,2419,14,id28_v2_b7_r6.jpg,28,6,7,2,643,blue,Netscape,2560,1440,Win32,18-09-23,11:42:55,red,other,442242,1.0
75,38,blue,no,more,male,1697622184937,2419,15,id6_v1_b7_r5.jpg,6,5,7,1,452,blue,Netscape,2560,1440,Win32,18-09-23,11:42:55,red,other,442242,1.0
76,38,blue,no,more,male,1697622184937,2419,16,id23_v1_b5_r6.jpg,23,6,5,1,1031,red,Netscape,2560,1440,Win32,18-09-23,11:42:55,red,other,442242,0.0
77,38,blue,no,more,male,1697622184937,2419,17,id19_v2_b7_r6.jpg,19,6,7,2,673,blue,Netscape,2560,1440,Win32,18-09-23,11:42:55,red,other,442242,1.0
78,38,red,no,more,male,1697622184937,2419,18,id11_v1_b5_r6.jpg,11,6,5,1,691,red,Netscape,2560,1440,Win32,18-09-23,11:42:55,red,other,442242,1.0
79,38,red,no,more,male,1697622184937,2419,19,id21_v1_b6_r7.jpg,21,7,6,1,1072,red,Netscape,2560,1440,Win32,18-09-23,11:42:55,red,other,442242,1.0
80,38,blue,no,more,male,1697622184937,2419,20,id18_v2_b5_r7.jpg,18,7,5,2,1983,red,Netscape,2560,1440,Win32,18-09-23,11:42:55,red,other,442242,0.0
81,38,red,no,more,male,1697622184937,2419,21,id13_v2_b6_r5.jpg,13,5,6,2,964,blue,Netscape,2560,1440,Win32,18-09-23,11:42:55,red,other,442242,0.0
82,38,red,no,more,male,1697622184937,2419,22,id30_v2_b6_r7.jpg,30,7,6,2,1202,red,Netscape,2560,1440,Win32,18-09-23,11:42:55,red,other,442242,1.0
83,38,blue,no,more,male,1697622184937,2419,23,id4_v2_b6_r5.jpg,4,5,6,2,494,blue,Netscape,2560,1440,Win32,18-09-23,11:42:55,red,other,442242,1.0
84,38,blue,no,more,male,1697622184937,2419,24,id29_v2_b6_r7.jpg,29,7,6,2,1079,red,Netscape,2560,1440,Win32,18-09-23,11:42:55,red,other,442242,0.0
85,38,blue,no,more,male,1697622184937,2419,25,id14_v2_b6_r7.jpg,14,7,6,2,592,red,Netscape,2560,1440,Win32,18-09-23,11:42:55,red,other,442242,0.0
86,38,red,no,more,male,1697622184937,2419,26,id25_v2_b6_r7.jpg,25,7,6,2,523,red,Netscape,2560,1440,Win32,18-09-23,11:42:55,red,other,442242,1.0
87,38,red,no,more,male,1697622184937,2419,27,id3_v2_b6_r7.jpg,3,7,6,2,650,red,Netscape,2560,1440,Win32,18-09-23,11:42:55,red,other,442242,1.0
88,38,blue,no,more,male,1697622184937,2419,28,id9_v1_b7_r5.jpg,9,5,7,1,585,blue,Netscape,2560,1440,Win32,18-09-23,11:42:55,red,other,442242,1.0
89,38,red,no,more,male,1697622184937,2419,29,id2_v2_b5_r6.jpg,2,6,5,2,681,red,Netscape,2560,1440,Win32,18-09-23,11:42:55,red,other,442242,1.0
90,38,blue,no,more,male,1697622184937,2419,30,id20_v2_b6_r7.jpg,20,7,6,2,472,red,Netscape,2560,1440,Win32,18-09-23,11:42:55,red,other,442242,0.0
91,38,blue,no,more,male,1697622184937,2419,31,id22_v2_b7_r6.jpg,22,6,7,2,624,blue,Netscape,2560,1440,Win32,18-09-23,11:42:55,red,other,442242,1.0
92,38,red,no,more,male,1697622184937,2419,32,id15_v1_b6_r8.jpg,15,8,6,1,586,red,Netscape,2560,1440,Win32,18-09-23,11:42:55,red,other,442242,1.0
93,38,red,no,more,male,1697622184937,2419,33,id10_v1_b6_r7.jpg,10,7,6,1,557,red,Netscape,2560,1440,Win32,18-09-23,11:42:55,red,other,442242,1.0
94,38,blue,no,more,male,1697622184937,2419,34,id17_v2_b5_r6.jpg,17,6,5,2,730,red,Netscape,2560,1440,Win32,18-09-23,11:42:55,red,other,442242,0.0
95,38,blue,no,more,male,1697622184937,2419,35,id5_v1_b6_r7.jpg,5,7,6,1,769,red,Netscape,2560,1440,Win32,18-09-23,11:42:55,red,other,442242,0.0
96,38,red,no,more,male,1697622184937,2419,36,id12_v2_b6_r7.jpg,12,7,6,2,509,red,Netscape,2560,1440,Win32,18-09-23,11:42:55,red,other,442242,1.0
97,38,red,no,more,male,1697622184937,2419,37,id16_v1_b6_r7.jpg,16,7,6,1,955,red,Netscape,2560,1440,Win32,18-09-23,11:42:55,red,other,442242,1.0
98,38,red,no,more,male,1697622184937,2419,38,id7_v1_b6_r7.jpg,7,7,6,1,520,red,Netscape,2560,1440,Win32,18-09-23,11:42:55,red,other,442242,1.0
99,38,blue,no,more,male,1697622184937,2419,39,id26_v2_b6_r7.jpg,26,7,6,2,814,red,Netscape,2560,1440,Win32,18-09-23,11:42:55,red,other,442242,0.0
100,38,blue,no,more,male,1697622184937,2419,40,id8_v1_b6_r5.jpg,8,5,6,1,778,blue,Netscape,2560,1440,Win32,18-09-23,11:42:55,red,other,442242,1.0
101,38,blue,no,more,male,1697622184937,2419,41,id1_v1_b7_r5.jpg,1,5,7,1,612,blue,Netscape,2560,1440,Win32,18-09-23,11:42:55,red,other,442242,1.0
102,38,blue,no,more,male,1697622184937,2419,42,id24_v1_b7_r6.jpg,24,6,7,1,734,blue,Netscape,2560,1440,Win32,18-09-23,11:42:55,red,other,442242,1.0
103,38,blue,no,more,male,1697622184937,2419,43,id27_v1_b7_r6.jpg,27,6,7,1,708,blue,Netscape,2560,1440,Win32,18-09-23,11:42:55,red,other,442242,1.0
104,38,red,no,more,male,1697622184937,2419,44,id28_v1_b6_r7.jpg,28,7,6,1,918,red,Netscape,2560,1440,Win32,18-09-23,11:42:55,red,other,442242,1.0
105,38,red,no,more,male,1697622184937,2419,45,id9_v2_b5_r7.jpg,9,7,5,2,772,red,Netscape,2560,1440,Win32,18-09-23,11:42:55,red,other,442242,1.0
106,38,blue,no,more,male,1697622184937,2419,46,id23_v2_b6_r5.jpg,23,5,6,2,1580,blue,Netscape,2560,1440,Win32,18-09-23,11:42:55,red,other,442242,1.0
107,38,blue,no,more,male,1697622184937,2419,47,id3_v1_b7_r6.jpg,3,6,7,1,970,blue,Netscape,2560,1440,Win32,18-09-23,11:42:55,red,other,442242,1.0
108,38,blue,no,more,male,1697622184937,2419,48,id25_v1_b7_r6.jpg,25,6,7,1,564,blue,Netscape,2560,1440,Win32,18-09-23,11:42:55,red,other,442242,1.0
109,38,blue,no,more,male,1697622184937,2419,49,id11_v2_b6_r5.jpg,11,5,6,2,1643,blue,Netscape,2560,1440,Win32,18-09-23,11:42:55,red,other,442242,1.0
110,38,red,no,more,male,1697622184937,2419,50,id4_v1_b5_r6.jpg,4,6,5,1,390,red,Netscape,2560,1440,Win32,18-09-23,11:42:55,red,other,442242,1.0
111,38,red,no,more,male,1697622184937,2419,51,id6_v2_b5_r7.jpg,6,7,5,2,456,red,Netscape,2560,1440,Win32,18-09-23,11:42:55,red,other,442242,1.0
112,38,red,no,more,male,1697622184937,2419,52,id13_v1_b5_r6.jpg,13,6,5,1,639,red,Netscape,2560,1440,Win32,18-09-23,11:42:55,red,other,442242,1.0
113,38,red,no,more,male,1697622184937,2419,53,id29_v1_b7_r6.jpg,29,6,7,1,1966,blue,Netscape,2560,1440,Win32,18-09-23,11:42:55,red,other,442242,0.0
114,38,blue,no,more,male,1697622184937,2419,54,id18_v1_b7_r5.jpg,18,5,7,1,578,blue,Netscape,2560,1440,Win32,18-09-23,11:42:55,red,other,442242,1.0
115,38,red,no,more,male,1697622184937,2419,55,id19_v1_b6_r7.jpg,19,7,6,1,1080,red,Netscape,2560,1440,Win32,18-09-23,11:42:55,red,other,442242,1.0
116,38,red,no,more,male,1697622184937,2419,56,id21_v2_b7_r6.jpg,21,6,7,2,1090,blue,Netscape,2560,1440,Win32,18-09-23,11:42:55,red,other,442242,0.0
117,38,blue,no,more,male,1697622184937,2419,57,id14_v1_b7_r6.jpg,14,6,7,1,450,blue,Netscape,2560,1440,Win32,18-09-23,11:42:55,red,other,442242,1.0
118,38,blue,no,more,male,1697622184937,2419,58,id30_v1_b7_r6.jpg,30,6,7,1,723,blue,Netscape,2560,1440,Win32,18-09-23,11:42:55,red,other,442242,1.0
119,38,blue,no,more,male,1697622184937,2419,59,id2_v1_b6_r5.jpg,2,5,6,1,810,blue,Netscape,2560,1440,Win32,18-09-23,11:42:55,red,other,442242,1.0
120,23,red,no,last-year,male,1697638495132,1512,0,id17_v1_b6_r5.jpg,17,5,6,1,981,blue,Netscape,1512,982,MacIntel,18-09-23,16:13:24,other,other,442451,0.0
121,23,blue,no,last-year,male,1697638495132,1512,1,id10_v2_b7_r6.jpg,10,6,7,2,736,blue,Netscape,1512,982,MacIntel,18-09-23,16:13:24,other,other,442451,1.0
122,23,blue,no,last-year,male,1697638495132,1512,2,id12_v1_b7_r6.jpg,12,6,7,1,696,blue,Netscape,1512,982,MacIntel,18-09-23,16:13:24,other,other,442451,1.0
124,23,blue,no,last-year,male,1697638495132,1512,4,id5_v2_b7_r6.jpg,5,6,7,2,1666,blue,Netscape,1512,982,MacIntel,18-09-23,16:13:24,other,other,442451,1.0
125,23,red,no,last-year,male,1697638495132,1512,5,id22_v1_b6_r7.jpg,22,7,6,1,670,red,Netscape,1512,982,MacIntel,18-09-23,16:13:24,other,other,442451,1.0
126,23,red,no,last-year,male,1697638495132,1512,6,id8_v2_b5_r6.jpg,8,6,5,2,800,red,Netscape,1512,982,MacIntel,18-09-23,16:13:24,other,other,442451,1.0
127,23,red,no,last-year,male,1697638495132,1512,7,id7_v2_b7_r6.jpg,7,6,7,2,1549,blue,Netscape,1512,982,MacIntel,18-09-23,16:13:24,other,other,442451,0.0
128,23,red,no,last-year,male,1697638495132,1512,8,id1_v2_b5_r7.jpg,1,7,5,2,671,red,Netscape,1512,982,MacIntel,18-09-23,16:13:24,other,other,442451,1.0
129,23,blue,no,last-year,male,1697638495132,1512,9,id15_v2_b8_r6.jpg,15,6,8,2,954,blue,Netscape,1512,982,MacIntel,18-09-23,16:13:24,other,other,442451,1.0
130,23,red,no,last-year,male,1697638495132,1512,10,id24_v2_b6_r7.jpg,24,7,6,2,1280,red,Netscape,1512,982,MacIntel,18-09-23,16:13:24,other,other,442451,1.0
131,23,red,no,last-year,male,1697638495132,1512,11,id26_v1_b7_r6.jpg,26,6,7,1,1185,blue,Netscape,1512,982,MacIntel,18-09-23,16:13:24,other,other,442451,0.0
132,23,red,no,last-year,male,1697638495132,1512,12,id27_v2_b6_r7.jpg,27,7,6,2,797,red,Netscape,1512,982,MacIntel,18-09-23,16:13:24,other,other,442451,1.0
133,23,blue,no,last-year,male,1697638495132,1512,13,id16_v2_b7_r6.jpg,16,6,7,2,976,blue,Netscape,1512,982,MacIntel,18-09-23,16:13:24,other,other,442451,1.0
134,23,blue,no,last-year,male,1697638495132,1512,14,id28_v2_b7_r6.jpg,28,6,7,2,1030,blue,Netscape,1512,982,MacIntel,18-09-23,16:13:24,other,other,442451,1.0
135,23,blue,no,last-year,male,1697638495132,1512,15,id6_v1_b7_r5.jpg,6,5,7,1,688,blue,Netscape,1512,982,MacIntel,18-09-23,16:13:24,other,other,442451,1.0
137,23,blue,no,last-year,male,1697638495132,1512,17,id19_v2_b7_r6.jpg,19,6,7,2,622,blue,Netscape,1512,982,MacIntel,18-09-23,16:13:24,other,other,442451,1.0
138,23,blue,no,last-year,male,1697638495132,1512,18,id11_v1_b5_r6.jpg,11,6,5,1,1090,red,Netscape,1512,982,MacIntel,18-09-23,16:13:24,other,other,442451,0.0
139,23,blue,no,last-year,male,1697638495132,1512,19,id21_v1_b6_r7.jpg,21,7,6,1,698,red,Netscape,1512,982,MacIntel,18-09-23,16:13:24,other,other,442451,0.0
140,23,red,no,last-year,male,1697638495132,1512,20,id18_v2_b5_r7.jpg,18,7,5,2,1169,red,Netscape,1512,982,MacIntel,18-09-23,16:13:24,other,other,442451,1.0
141,23,blue,no,last-year,male,1697638495132,1512,21,id13_v2_b6_r5.jpg,13,5,6,2,1470,blue,Netscape,1512,982,MacIntel,18-09-23,16:13:24,other,other,442451,1.0
142,23,red,no,last-year,male,1697638495132,1512,22,id30_v2_b6_r7.jpg,30,7,6,2,1028,red,Netscape,1512,982,MacIntel,18-09-23,16:13:24,other,other,442451,1.0
143,23,blue,no,last-year,male,1697638495132,1512,23,id4_v2_b6_r5.jpg,4,5,6,2,1109,blue,Netscape,1512,982,MacIntel,18-09-23,16:13:24,other,other,442451,1.0
144,23,blue,no,last-year,male,1697638495132,1512,24,id29_v2_b6_r7.jpg,29,7,6,2,886,red,Netscape,1512,982,MacIntel,18-09-23,16:13:24,other,other,442451,0.0
145,23,red,no,last-year,male,1697638495132,1512,25,id14_v2_b6_r7.jpg,14,7,6,2,1176,red,Netscape,1512,982,MacIntel,18-09-23,16:13:24,other,other,442451,1.0
146,23,red,no,last-year,male,1697638495132,1512,26,id25_v2_b6_r7.jpg,25,7,6,2,1387,red,Netscape,1512,982,MacIntel,18-09-23,16:13:24,other,other,442451,1.0
148,23,blue,no,last-year,male,1697638495132,1512,28,id9_v1_b7_r5.jpg,9,5,7,1,802,blue,Netscape,1512,982,MacIntel,18-09-23,16:13:24,other,other,442451,1.0
149,23,red,no,last-year,male,1697638495132,1512,29,id2_v2_b5_r6.jpg,2,6,5,2,1100,red,Netscape,1512,982,MacIntel,18-09-23,16:13:24,other,other,442451,1.0
151,23,blue,no,last-year,male,1697638495132,1512,31,id22_v2_b7_r6.jpg,22,6,7,2,1672,blue,Netscape,1512,982,MacIntel,18-09-23,16:13:24,other,other,442451,1.0
152,23,red,no,last-year,male,1697638495132,1512,32,id15_v1_b6_r8.jpg,15,8,6,1,1041,red,Netscape,1512,982,MacIntel,18-09-23,16:13:24,other,other,442451,1.0
153,23,red,no,last-year,male,1697638495132,1512,33,id10_v1_b6_r7.jpg,10,7,6,1,647,red,Netscape,1512,982,MacIntel,18-09-23,16:13:24,other,other,442451,1.0
154,23,red,no,last-year,male,1697638495132,1512,34,id17_v2_b5_r6.jpg,17,6,5,2,6543,red,Netscape,1512,982,MacIntel,18-09-23,16:13:24,other,other,442451,1.0
155,23,red,no,last-year,male,1697638495132,1512,35,id5_v1_b6_r7.jpg,5,7,6,1,689,red,Netscape,1512,982,MacIntel,18-09-23,16:13:24,other,other,442451,1.0
156,23,red,no,last-year,male,1697638495132,1512,36,id12_v2_b6_r7.jpg,12,7,6,2,456,red,Netscape,1512,982,MacIntel,18-09-23,16:13:24,other,other,442451,1.0
157,23,red,no,last-year,male,1697638495132,1512,37,id16_v1_b6_r7.jpg,16,7,6,1,964,red,Netscape,1512,982,MacIntel,18-09-23,16:13:24,other,other,442451,1.0
158,23,red,no,last-year,male,1697638495132,1512,38,id7_v1_b6_r7.jpg,7,7,6,1,2557,red,Netscape,1512,982,MacIntel,18-09-23,16:13:24,other,other,442451,1.0
159,23,blue,no,last-year,male,1697638495132,1512,39,id26_v2_b6_r7.jpg,26,7,6,2,789,red,Netscape,1512,982,MacIntel,18-09-23,16:13:24,other,other,442451,0.0
160,23,blue,no,last-year,male,1697638495132,1512,40,id8_v1_b6_r5.jpg,8,5,6,1,724,blue,Netscape,1512,982,MacIntel,18-09-23,16:13:24,other,other,442451,1.0
161,23,blue,no,last-year,male,1697638495132,1512,41,id1_v1_b7_r5.jpg,1,5,7,1,673,blue,Netscape,1512,982,MacIntel,18-09-23,16:13:24,other,other,442451,1.0
162,23,blue,no,last-year,male,1697638495132,1512,42,id24_v1_b7_r6.jpg,24,6,7,1,514,blue,Netscape,1512,982,MacIntel,18-09-23,16:13:24,other,other,442451,1.0
163,23,blue,no,last-year,male,1697638495132,1512,43,id27_v1_b7_r6.jpg,27,6,7,1,438,blue,Netscape,1512,982,MacIntel,18-09-23,16:13:24,other,other,442451,1.0
164,23,red,no,last-year,male,1697638495132,1512,44,id28_v1_b6_r7.jpg,28,7,6,1,873,red,Netscape,1512,982,MacIntel,18-09-23,16:13:24,other,other,442451,1.0
165,23,red,no,last-year,male,1697638495132,1512,45,id9_v2_b5_r7.jpg,9,7,5,2,691,red,Netscape,1512,982,MacIntel,18-09-23,16:13:24,other,other,442451,1.0
168,23,blue,no,last-year,male,1697638495132,1512,48,id25_v1_b7_r6.jpg,25,6,7,1,775,blue,Netscape,1512,982,MacIntel,18-09-23,16:13:24,other,other,442451,1.0
169,23,blue,no,last-year,male,1697638495132,1512,49,id11_v2_b6_r5.jpg,11,5,6,2,1740,blue,Netscape,1512,982,MacIntel,18-09-23,16:13:24,other,other,442451,1.0
170,23,red,no,last-year,male,1697638495132,1512,50,id4_v1_b5_r6.jpg,4,6,5,1,1056,red,Netscape,1512,982,MacIntel,18-09-23,16:13:24,other,other,442451,1.0
171,23,red,no,last-year,male,1697638495132,1512,51,id6_v2_b5_r7.jpg,6,7,5,2,749,red,Netscape,1512,982,MacIntel,18-09-23,16:13:24,other,other,442451,1.0
172,23,red,no,last-year,male,1697638495132,1512,52,id13_v1_b5_r6.jpg,13,6,5,1,684,red,Netscape,1512,982,MacIntel,18-09-23,16:13:24,other,other,442451,1.0
173,23,red,no,last-year,male,1697638495132,1512,53,id29_v1_b7_r6.jpg,29,6,7,1,479,blue,Netscape,1512,982,MacIntel,18-09-23,16:13:24,other,other,442451,0.0
174,23,blue,no,last-year,male,1697638495132,1512,54,id18_v1_b7_r5.jpg,18,5,7,1,773,blue,Netscape,1512,982,MacIntel,18-09-23,16:13:24,other,other,442451,1.0
175,23,red,no,last-year,male,1697638495132,1512,55,id19_v1_b6_r7.jpg,19,7,6,1,2099,red,Netscape,1512,982,MacIntel,18-09-23,16:13:24,other,other,442451,1.0
176,23,red,no,last-year,male,1697638495132,1512,56,id21_v2_b7_r6.jpg,21,6,7,2,519,blue,Netscape,1512,982,MacIntel,18-09-23,16:13:24,other,other,442451,0.0
177,23,blue,no,last-year,male,1697638495132,1512,57,id14_v1_b7_r6.jpg,14,6,7,1,877,blue,Netscape,1512,982,MacIntel,18-09-23,16:13:24,other,other,442451,1.0
178,23,blue,no,last-year,male,1697638495132,1512,58,id30_v1_b7_r6.jpg,30,6,7,1,953,blue,Netscape,1512,982,MacIntel,18-09-23,16:13:24,other,other,442451,1.0
179,23,blue,no,last-year,male,1697638495132,1512,59,id2_v1_b6_r5.jpg,2,5,6,1,5108,blue,Netscape,1512,982,MacIntel,18-09-23,16:13:24,other,other,442451,1.0
180,23,blue,no,last-year,male,1697640242308,1324,0,id17_v1_b6_r5.jpg,17,5,6,1,1697,blue,Netscape,1512,982,MacIntel,18-09-23,16:44:03,blue,blue,442482,1.0
181,23,blue,no,last-year,male,1697640242308,1324,1,id10_v2_b7_r6.jpg,10,6,7,2,1267,blue,Netscape,1512,982,MacIntel,18-09-23,16:44:03,blue,blue,442482,1.0
182,23,blue,no,last-year,male,1697640242308,1324,2,id12_v1_b7_r6.jpg,12,6,7,1,812,blue,Netscape,1512,982,MacIntel,18-09-23,16:44:03,blue,blue,442482,1.0
183,23,red,no,last-year,male,1697640242308,1324,3,id20_v1_b7_r6.jpg,20,6,7,1,1006,blue,Netscape,1512,982,MacIntel,18-09-23,16:44:03,blue,blue,442482,0.0
184,23,red,no,last-year,male,1697640242308,1324,4,id5_v2_b7_r6.jpg,5,6,7,2,718,blue,Netscape,1512,982,MacIntel,18-09-23,16:44:03,blue,blue,442482,0.0
185,23,red,no,last-year,male,1697640242308,1324,5,id22_v1_b6_r7.jpg,22,7,6,1,892,red,Netscape,1512,982,MacIntel,18-09-23,16:44:03,blue,blue,442482,1.0
186,23,red,no,last-year,male,1697640242308,1324,6,id8_v2_b5_r6.jpg,8,6,5,2,889,red,Netscape,1512,982,MacIntel,18-09-23,16:44:03,blue,blue,442482,1.0
187,23,blue,no,last-year,male,1697640242308,1324,7,id7_v2_b7_r6.jpg,7,6,7,2,1633,blue,Netscape,1512,982,MacIntel,18-09-23,16:44:03,blue,blue,442482,1.0
188,23,red,no,last-year,male,1697640242308,1324,8,id1_v2_b5_r7.jpg,1,7,5,2,835,red,Netscape,1512,982,MacIntel,18-09-23,16:44:03,blue,blue,442482,1.0
189,23,blue,no,last-year,male,1697640242308,1324,9,id15_v2_b8_r6.jpg,15,6,8,2,880,blue,Netscape,1512,982,MacIntel,18-09-23,16:44:03,blue,blue,442482,1.0
190,23,blue,no,last-year,male,1697640242308,1324,10,id24_v2_b6_r7.jpg,24,7,6,2,846,red,Netscape,1512,982,MacIntel,18-09-23,16:44:03,blue,blue,442482,0.0
191,23,blue,no,last-year,male,1697640242308,1324,11,id26_v1_b7_r6.jpg,26,6,7,1,799,blue,Netscape,1512,982,MacIntel,18-09-23,16:44:03,blue,blue,442482,1.0
192,23,blue,no,last-year,male,1697640242308,1324,12,id27_v2_b6_r7.jpg,27,7,6,2,690,red,Netscape,1512,982,MacIntel,18-09-23,16:44:03,blue,blue,442482,0.0
193,23,red,no,last-year,male,1697640242308,1324,13,id16_v2_b7_r6.jpg,16,6,7,2,1162,blue,Netscape,1512,982,MacIntel,18-09-23,16:44:03,blue,blue,442482,0.0
194,23,blue,no,last-year,male,1697640242308,1324,14,id28_v2_b7_r6.jpg,28,6,7,2,2138,blue,Netscape,1512,982,MacIntel,18-09-23,16:44:03,blue,blue,442482,1.0
195,23,blue,no,last-year,male,1697640242308,1324,15,id6_v1_b7_r5.jpg,6,5,7,1,881,blue,Netscape,1512,982,MacIntel,18-09-23,16:44:03,blue,blue,442482,1.0
196,23,red,no,last-year,male,1697640242308,1324,16,id23_v1_b5_r6.jpg,23,6,5,1,985,red,Netscape,1512,982,MacIntel,18-09-23,16:44:03,blue,blue,442482,1.0
197,23,blue,no,last-year,male,1697640242308,1324,17,id19_v2_b7_r6.jpg,19,6,7,2,829,blue,Netscape,1512,982,MacIntel,18-09-23,16:44:03,blue,blue,442482,1.0
198,23,red,no,last-year,male,1697640242308,1324,18,id11_v1_b5_r6.jpg,11,6,5,1,844,red,Netscape,1512,982,MacIntel,18-09-23,16:44:03,blue,blue,442482,1.0
199,23,blue,no,last-year,male,1697640242308,1324,19,id21_v1_b6_r7.jpg,21,7,6,1,804,red,Netscape,1512,982,MacIntel,18-09-23,16:44:03,blue,blue,442482,0.0
200,23,red,no,last-year,male,1697640242308,1324,20,id18_v2_b5_r7.jpg,18,7,5,2,909,red,Netscape,1512,982,MacIntel,18-09-23,16:44:03,blue,blue,442482,1.0
201,23,blue,no,last-year,male,1697640242308,1324,21,id13_v2_b6_r5.jpg,13,5,6,2,1001,blue,Netscape,1512,982,MacIntel,18-09-23,16:44:03,blue,blue,442482,1.0
202,23,red,no,last-year,male,1697640242308,1324,22,id30_v2_b6_r7.jpg,30,7,6,2,779,red,Netscape,1512,982,MacIntel,18-09-23,16:44:03,blue,blue,442482,1.0
203,23,blue,no,last-year,male,1697640242308,1324,23,id4_v2_b6_r5.jpg,4,5,6,2,710,blue,Netscape,1512,982,MacIntel,18-09-23,16:44:03,blue,blue,442482,1.0
204,23,blue,no,last-year,male,1697640242308,1324,24,id29_v2_b6_r7.jpg,29,7,6,2,547,red,Netscape,1512,982,MacIntel,18-09-23,16:44:03,blue,blue,442482,0.0
205,23,red,no,last-year,male,1697640242308,1324,25,id14_v2_b6_r7.jpg,14,7,6,2,937,red,Netscape,1512,982,MacIntel,18-09-23,16:44:03,blue,blue,442482,1.0
206,23,red,no,last-year,male,1697640242308,1324,26,id25_v2_b6_r7.jpg,25,7,6,2,1058,red,Netscape,1512,982,MacIntel,18-09-23,16:44:03,blue,blue,442482,1.0
207,23,red,no,last-year,male,1697640242308,1324,27,id3_v2_b6_r7.jpg,3,7,6,2,642,red,Netscape,1512,982,MacIntel,18-09-23,16:44:03,blue,blue,442482,1.0
208,23,blue,no,last-year,male,1697640242308,1324,28,id9_v1_b7_r5.jpg,9,5,7,1,997,blue,Netscape,1512,982,MacIntel,18-09-23,16:44:03,blue,blue,442482,1.0
209,23,red,no,last-year,male,1697640242308,1324,29,id2_v2_b5_r6.jpg,2,6,5,2,754,red,Netscape,1512,982,MacIntel,18-09-23,16:44:03,blue,blue,442482,1.0
210,23,red,no,last-year,male,1697640242308,1324,30,id20_v2_b6_r7.jpg,20,7,6,2,1000,red,Netscape,1512,982,MacIntel,18-09-23,16:44:03,blue,blue,442482,1.0
211,23,blue,no,last-year,male,1697640242308,1324,31,id22_v2_b7_r6.jpg,22,6,7,2,692,blue,Netscape,1512,982,MacIntel,18-09-23,16:44:03,blue,blue,442482,1.0
212,23,red,no,last-year,male,1697640242308,1324,32,id15_v1_b6_r8.jpg,15,8,6,1,795,red,Netscape,1512,982,MacIntel,18-09-23,16:44:03,blue,blue,442482,1.0
213,23,red,no,last-year,male,1697640242308,1324,33,id10_v1_b6_r7.jpg,10,7,6,1,713,red,Netscape,1512,982,MacIntel,18-09-23,16:44:03,blue,blue,442482,1.0
214,23,blue,no,last-year,male,1697640242308,1324,34,id17_v2_b5_r6.jpg,17,6,5,2,1054,red,Netscape,1512,982,MacIntel,18-09-23,16:44:03,blue,blue,442482,0.0
215,23,red,no,last-year,male,1697640242308,1324,35,id5_v1_b6_r7.jpg,5,7,6,1,818,red,Netscape,1512,982,MacIntel,18-09-23,16:44:03,blue,blue,442482,1.0
216,23,red,no,last-year,male,1697640242308,1324,36,id12_v2_b6_r7.jpg,12,7,6,2,666,red,Netscape,1512,982,MacIntel,18-09-23,16:44:03,blue,blue,442482,1.0
217,23,blue,no,last-year,male,1697640242308,1324,37,id16_v1_b6_r7.jpg,16,7,6,1,4463,red,Netscape,1512,982,MacIntel,18-09-23,16:44:03,blue,blue,442482,0.0
218,23,blue,no,last-year,male,1697640242308,1324,38,id7_v1_b6_r7.jpg,7,7,6,1,815,red,Netscape,1512,982,MacIntel,18-09-23,16:44:03,blue,blue,442482,0.0
219,23,red,no,last-year,male,1697640242308,1324,39,id26_v2_b6_r7.jpg,26,7,6,2,675,red,Netscape,1512,982,MacIntel,18-09-23,16:44:03,blue,blue,442482,1.0
220,23,blue,no,last-year,male,1697640242308,1324,40,id8_v1_b6_r5.jpg,8,5,6,1,898,blue,Netscape,1512,982,MacIntel,18-09-23,16:44:03,blue,blue,442482,1.0
221,23,blue,no,last-year,male,1697640242308,1324,41,id1_v1_b7_r5.jpg,1,5,7,1,672,blue,Netscape,1512,982,MacIntel,18-09-23,16:44:03,blue,blue,442482,1.0
222,23,blue,no,last-year,male,1697640242308,1324,42,id24_v1_b7_r6.jpg,24,6,7,1,1039,blue,Netscape,1512,982,MacIntel,18-09-23,16:44:03,blue,blue,442482,1.0
223,23,blue,no,last-year,male,1697640242308,1324,43,id27_v1_b7_r6.jpg,27,6,7,1,870,blue,Netscape,1512,982,MacIntel,18-09-23,16:44:03,blue,blue,442482,1.0
224,23,red,no,last-year,male,1697640242308,1324,44,id28_v1_b6_r7.jpg,28,7,6,1,879,red,Netscape,1512,982,MacIntel,18-09-23,16:44:03,blue,blue,442482,1.0
225,23,blue,no,last-year,male,1697640242308,1324,45,id9_v2_b5_r7.jpg,9,7,5,2,864,red,Netscape,1512,982,MacIntel,18-09-23,16:44:03,blue,blue,442482,0.0
226,23,red,no,last-year,male,1697640242308,1324,46,id23_v2_b6_r5.jpg,23,5,6,2,674,blue,Netscape,1512,982,MacIntel,18-09-23,16:44:03,blue,blue,442482,0.0
227,23,blue,no,last-year,male,1697640242308,1324,47,id3_v1_b7_r6.jpg,3,6,7,1,1014,blue,Netscape,1512,982,MacIntel,18-09-23,16:44:03,blue,blue,442482,1.0
228,23,blue,no,last-year,male,1697640242308,1324,48,id25_v1_b7_r6.jpg,25,6,7,1,1540,blue,Netscape,1512,982,MacIntel,18-09-23,16:44:03,blue,blue,442482,1.0
229,23,blue,no,last-year,male,1697640242308,1324,49,id11_v2_b6_r5.jpg,11,5,6,2,1210,blue,Netscape,1512,982,MacIntel,18-09-23,16:44:03,blue,blue,442482,1.0
230,23,red,no,last-year,male,1697640242308,1324,50,id4_v1_b5_r6.jpg,4,6,5,1,672,red,Netscape,1512,982,MacIntel,18-09-23,16:44:03,blue,blue,442482,1.0
231,23,red,no,last-year,male,1697640242308,1324,51,id6_v2_b5_r7.jpg,6,7,5,2,624,red,Netscape,1512,982,MacIntel,18-09-23,16:44:03,blue,blue,442482,1.0
232,23,blue,no,last-year,male,1697640242308,1324,52,id13_v1_b5_r6.jpg,13,6,5,1,866,red,Netscape,1512,982,MacIntel,18-09-23,16:44:03,blue,blue,442482,0.0
233,23,red,no,last-year,male,1697640242308,1324,53,id29_v1_b7_r6.jpg,29,6,7,1,757,blue,Netscape,1512,982,MacIntel,18-09-23,16:44:03,blue,blue,442482,0.0
234,23,blue,no,last-year,male,1697640242308,1324,54,id18_v1_b7_r5.jpg,18,5,7,1,859,blue,Netscape,1512,982,MacIntel,18-09-23,16:44:03,blue,blue,442482,1.0
235,23,red,no,last-year,male,1697640242308,1324,55,id19_v1_b6_r7.jpg,19,7,6,1,678,red,Netscape,1512,982,MacIntel,18-09-23,16:44:03,blue,blue,442482,1.0
236,23,blue,no,last-year,male,1697640242308,1324,56,id21_v2_b7_r6.jpg,21,6,7,2,1255,blue,Netscape,1512,982,MacIntel,18-09-23,16:44:03,blue,blue,442482,1.0
237,23,red,no,last-year,male,1697640242308,1324,57,id14_v1_b7_r6.jpg,14,6,7,1,756,blue,Netscape,1512,982,MacIntel,18-09-23,16:44:03,blue,blue,442482,0.0
238,23,blue,no,last-year,male,1697640242308,1324,58,id30_v1_b7_r6.jpg,30,6,7,1,923,blue,Netscape,1512,982,MacIntel,18-09-23,16:44:03,blue,blue,442482,1.0
239,23,blue,no,last-year,male,1697640242308,1324,59,id2_v1_b6_r5.jpg,2,5,6,1,721,blue,Netscape,1512,982,MacIntel,18-09-23,16:44:03,blue,blue,442482,1.0
240,22,blue,no,last-month,male,1697640313337,1440,0,id17_v1_b6_r5.jpg,17,5,6,1,1554,blue,Netscape,1440,900,MacIntel,18-09-23,16:44:09,blue,other,442483,1.0
241,22,blue,no,last-month,male,1697640313337,1440,1,id10_v2_b7_r6.jpg,10,6,7,2,1035,blue,Netscape,1440,900,MacIntel,18-09-23,16:44:09,blue,other,442483,1.0
242,22,blue,no,last-month,male,1697640313337,1440,2,id12_v1_b7_r6.jpg,12,6,7,1,851,blue,Netscape,1440,900,MacIntel,18-09-23,16:44:09,blue,other,442483,1.0
243,22,red,no,last-month,male,1697640313337,1440,3,id20_v1_b7_r6.jpg,20,6,7,1,1002,blue,Netscape,1440,900,MacIntel,18-09-23,16:44:09,blue,other,442483,0.0
244,22,blue,no,last-month,male,1697640313337,1440,4,id5_v2_b7_r6.jpg,5,6,7,2,870,blue,Netscape,1440,900,MacIntel,18-09-23,16:44:09,blue,other,442483,1.0
245,22,red,no,last-month,male,1697640313337,1440,5,id22_v1_b6_r7.jpg,22,7,6,1,584,red,Netscape,1440,900,MacIntel,18-09-23,16:44:09,blue,other,442483,1.0
246,22,red,no,last-month,male,1697640313337,1440,6,id8_v2_b5_r6.jpg,8,6,5,2,618,red,Netscape,1440,900,MacIntel,18-09-23,16:44:09,blue,other,442483,1.0
247,22,blue,no,last-month,male,1697640313337,1440,7,id7_v2_b7_r6.jpg,7,6,7,2,1501,blue,Netscape,1440,900,MacIntel,18-09-23,16:44:09,blue,other,442483,1.0
248,22,red,no,last-month,male,1697640313337,1440,8,id1_v2_b5_r7.jpg,1,7,5,2,784,red,Netscape,1440,900,MacIntel,18-09-23,16:44:09,blue,other,442483,1.0
249,22,blue,no,last-month,male,1697640313337,1440,9,id15_v2_b8_r6.jpg,15,6,8,2,2734,blue,Netscape,1440,900,MacIntel,18-09-23,16:44:09,blue,other,442483,1.0
250,22,red,no,last-month,male,1697640313337,1440,10,id24_v2_b6_r7.jpg,24,7,6,2,1351,red,Netscape,1440,900,MacIntel,18-09-23,16:44:09,blue,other,442483,1.0
251,22,blue,no,last-month,male,1697640313337,1440,11,id26_v1_b7_r6.jpg,26,6,7,1,987,blue,Netscape,1440,900,MacIntel,18-09-23,16:44:09,blue,other,442483,1.0
252,22,red,no,last-month,male,1697640313337,1440,12,id27_v2_b6_r7.jpg,27,7,6,2,1068,red,Netscape,1440,900,MacIntel,18-09-23,16:44:09,blue,other,442483,1.0
253,22,red,no,last-month,male,1697640313337,1440,13,id16_v2_b7_r6.jpg,16,6,7,2,1802,blue,Netscape,1440,900,MacIntel,18-09-23,16:44:09,blue,other,442483,0.0
254,22,blue,no,last-month,male,1697640313337,1440,14,id28_v2_b7_r6.jpg,28,6,7,2,718,blue,Netscape,1440,900,MacIntel,18-09-23,16:44:09,blue,other,442483,1.0
255,22,blue,no,last-month,male,1697640313337,1440,15,id6_v1_b7_r5.jpg,6,5,7,1,786,blue,Netscape,1440,900,MacIntel,18-09-23,16:44:09,blue,other,442483,1.0
256,22,blue,no,last-month,male,1697640313337,1440,16,id23_v1_b5_r6.jpg,23,6,5,1,1154,red,Netscape,1440,900,MacIntel,18-09-23,16:44:09,blue,other,442483,0.0
257,22,blue,no,last-month,male,1697640313337,1440,17,id19_v2_b7_r6.jpg,19,6,7,2,3654,blue,Netscape,1440,900,MacIntel,18-09-23,16:44:09,blue,other,442483,1.0
258,22,red,no,last-month,male,1697640313337,1440,18,id11_v1_b5_r6.jpg,11,6,5,1,718,red,Netscape,1440,900,MacIntel,18-09-23,16:44:09,blue,other,442483,1.0
259,22,blue,no,last-month,male,1697640313337,1440,19,id21_v1_b6_r7.jpg,21,7,6,1,2368,red,Netscape,1440,900,MacIntel,18-09-23,16:44:09,blue,other,442483,0.0
260,22,red,no,last-month,male,1697640313337,1440,20,id18_v2_b5_r7.jpg,18,7,5,2,1202,red,Netscape,1440,900,MacIntel,18-09-23,16:44:09,blue,other,442483,1.0
261,22,red,no,last-month,male,1697640313337,1440,21,id13_v2_b6_r5.jpg,13,5,6,2,1487,blue,Netscape,1440,900,MacIntel,18-09-23,16:44:09,blue,other,442483,0.0
262,22,red,no,last-month,male,1697640313337,1440,22,id30_v2_b6_r7.jpg,30,7,6,2,1252,red,Netscape,1440,900,MacIntel,18-09-23,16:44:09,blue,other,442483,1.0
263,22,blue,no,last-month,male,1697640313337,1440,23,id4_v2_b6_r5.jpg,4,5,6,2,570,blue,Netscape,1440,900,MacIntel,18-09-23,16:44:09,blue,other,442483,1.0
264,22,blue,no,last-month,male,1697640313337,1440,24,id29_v2_b6_r7.jpg,29,7,6,2,1669,red,Netscape,1440,900,MacIntel,18-09-23,16:44:09,blue,other,442483,0.0
265,22,red,no,last-month,male,1697640313337,1440,25,id14_v2_b6_r7.jpg,14,7,6,2,1971,red,Netscape,1440,900,MacIntel,18-09-23,16:44:09,blue,other,442483,1.0
266,22,red,no,last-month,male,1697640313337,1440,26,id25_v2_b6_r7.jpg,25,7,6,2,1855,red,Netscape,1440,900,MacIntel,18-09-23,16:44:09,blue,other,442483,1.0
267,22,red,no,last-month,male,1697640313337,1440,27,id3_v2_b6_r7.jpg,3,7,6,2,851,red,Netscape,1440,900,MacIntel,18-09-23,16:44:09,blue,other,442483,1.0
268,22,blue,no,last-month,male,1697640313337,1440,28,id9_v1_b7_r5.jpg,9,5,7,1,786,blue,Netscape,1440,900,MacIntel,18-09-23,16:44:09,blue,other,442483,1.0
269,22,red,no,last-month,male,1697640313337,1440,29,id2_v2_b5_r6.jpg,2,6,5,2,752,red,Netscape,1440,900,MacIntel,18-09-23,16:44:09,blue,other,442483,1.0
270,22,blue,no,last-month,male,1697640313337,1440,30,id20_v2_b6_r7.jpg,20,7,6,2,951,red,Netscape,1440,900,MacIntel,18-09-23,16:44:09,blue,other,442483,0.0
271,22,blue,no,last-month,male,1697640313337,1440,31,id22_v2_b7_r6.jpg,22,6,7,2,485,blue,Netscape,1440,900,MacIntel,18-09-23,16:44:09,blue,other,442483,1.0
272,22,blue,no,last-month,male,1697640313337,1440,32,id15_v1_b6_r8.jpg,15,8,6,1,782,red,Netscape,1440,900,MacIntel,18-09-23,16:44:09,blue,other,442483,0.0
273,22,red,no,last-month,male,1697640313337,1440,33,id10_v1_b6_r7.jpg,10,7,6,1,1334,red,Netscape,1440,900,MacIntel,18-09-23,16:44:09,blue,other,442483,1.0
274,22,blue,no,last-month,male,1697640313337,1440,34,id17_v2_b5_r6.jpg,17,6,5,2,505,red,Netscape,1440,900,MacIntel,18-09-23,16:44:09,blue,other,442483,0.0
275,22,blue,no,last-month,male,1697640313337,1440,35,id5_v1_b6_r7.jpg,5,7,6,1,483,red,Netscape,1440,900,MacIntel,18-09-23,16:44:09,blue,other,442483,0.0
276,22,red,no,last-month,male,1697640313337,1440,36,id12_v2_b6_r7.jpg,12,7,6,2,486,red,Netscape,1440,900,MacIntel,18-09-23,16:44:09,blue,other,442483,1.0
277,22,blue,no,last-month,male,1697640313337,1440,37,id16_v1_b6_r7.jpg,16,7,6,1,1519,red,Netscape,1440,900,MacIntel,18-09-23,16:44:09,blue,other,442483,0.0
278,22,red,no,last-month,male,1697640313337,1440,38,id7_v1_b6_r7.jpg,7,7,6,1,652,red,Netscape,1440,900,MacIntel,18-09-23,16:44:09,blue,other,442483,1.0
279,22,red,no,last-month,male,1697640313337,1440,39,id26_v2_b6_r7.jpg,26,7,6,2,804,red,Netscape,1440,900,MacIntel,18-09-23,16:44:09,blue,other,442483,1.0
280,22,blue,no,last-month,male,1697640313337,1440,40,id8_v1_b6_r5.jpg,8,5,6,1,903,blue,Netscape,1440,900,MacIntel,18-09-23,16:44:09,blue,other,442483,1.0
281,22,blue,no,last-month,male,1697640313337,1440,41,id1_v1_b7_r5.jpg,1,5,7,1,536,blue,Netscape,1440,900,MacIntel,18-09-23,16:44:09,blue,other,442483,1.0
282,22,blue,no,last-month,male,1697640313337,1440,42,id24_v1_b7_r6.jpg,24,6,7,1,604,blue,Netscape,1440,900,MacIntel,18-09-23,16:44:09,blue,other,442483,1.0
283,22,red,no,last-month,male,1697640313337,1440,43,id27_v1_b7_r6.jpg,27,6,7,1,822,blue,Netscape,1440,900,MacIntel,18-09-23,16:44:09,blue,other,442483,0.0
284,22,red,no,last-month,male,1697640313337,1440,44,id28_v1_b6_r7.jpg,28,7,6,1,787,red,Netscape,1440,900,MacIntel,18-09-23,16:44:09,blue,other,442483,1.0
285,22,red,no,last-month,male,1697640313337,1440,45,id9_v2_b5_r7.jpg,9,7,5,2,920,red,Netscape,1440,900,MacIntel,18-09-23,16:44:09,blue,other,442483,1.0
286,22,blue,no,last-month,male,1697640313337,1440,46,id23_v2_b6_r5.jpg,23,5,6,2,885,blue,Netscape,1440,900,MacIntel,18-09-23,16:44:09,blue,other,442483,1.0
287,22,blue,no,last-month,male,1697640313337,1440,47,id3_v1_b7_r6.jpg,3,6,7,1,1436,blue,Netscape,1440,900,MacIntel,18-09-23,16:44:09,blue,other,442483,1.0
288,22,blue,no,last-month,male,1697640313337,1440,48,id25_v1_b7_r6.jpg,25,6,7,1,734,blue,Netscape,1440,900,MacIntel,18-09-23,16:44:09,blue,other,442483,1.0
289,22,blue,no,last-month,male,1697640313337,1440,49,id11_v2_b6_r5.jpg,11,5,6,2,1021,blue,Netscape,1440,900,MacIntel,18-09-23,16:44:09,blue,other,442483,1.0
290,22,red,no,last-month,male,1697640313337,1440,50,id4_v1_b5_r6.jpg,4,6,5,1,951,red,Netscape,1440,900,MacIntel,18-09-23,16:44:09,blue,other,442483,1.0
291,22,red,no,last-month,male,1697640313337,1440,51,id6_v2_b5_r7.jpg,6,7,5,2,685,red,Netscape,1440,900,MacIntel,18-09-23,16:44:09,blue,other,442483,1.0
292,22,red,no,last-month,male,1697640313337,1440,52,id13_v1_b5_r6.jpg,13,6,5,1,1586,red,Netscape,1440,900,MacIntel,18-09-23,16:44:09,blue,other,442483,1.0
293,22,blue,no,last-month,male,1697640313337,1440,53,id29_v1_b7_r6.jpg,29,6,7,1,801,blue,Netscape,1440,900,MacIntel,18-09-23,16:44:09,blue,other,442483,1.0
294,22,red,no,last-month,male,1697640313337,1440,54,id18_v1_b7_r5.jpg,18,5,7,1,1384,blue,Netscape,1440,900,MacIntel,18-09-23,16:44:09,blue,other,442483,0.0
295,22,blue,no,last-month,male,1697640313337,1440,55,id19_v1_b6_r7.jpg,19,7,6,1,1386,red,Netscape,1440,900,MacIntel,18-09-23,16:44:09,blue,other,442483,0.0
296,22,red,no,last-month,male,1697640313337,1440,56,id21_v2_b7_r6.jpg,21,6,7,2,971,blue,Netscape,1440,900,MacIntel,18-09-23,16:44:09,blue,other,442483,0.0
297,22,red,no,last-month,male,1697640313337,1440,57,id14_v1_b7_r6.jpg,14,6,7,1,1603,blue,Netscape,1440,900,MacIntel,18-09-23,16:44:09,blue,other,442483,0.0
298,22,blue,no,last-month,male,1697640313337,1440,58,id30_v1_b7_r6.jpg,30,6,7,1,1353,blue,Netscape,1440,900,MacIntel,18-09-23,16:44:09,blue,other,442483,1.0
299,22,blue,no,last-month,male,1697640313337,1440,59,id2_v1_b6_r5.jpg,2,5,6,1,535,blue,Netscape,1440,900,MacIntel,18-09-23,16:44:09,blue,other,442483,1.0
300,32,blue,no,last-month,male,1697650489533,1920,0,id17_v1_b6_r5.jpg,17,5,6,1,1529,blue,Netscape,1920,1080,Win32,18-09-23,18:33:49,other,other,442636,1.0
301,32,blue,no,last-month,male,1697650489533,1920,1,id10_v2_b7_r6.jpg,10,6,7,2,1105,blue,Netscape,1920,1080,Win32,18-09-23,18:33:49,other,other,442636,1.0
302,32,blue,no,last-month,male,1697650489533,1920,2,id12_v1_b7_r6.jpg,12,6,7,1,2102,blue,Netscape,1920,1080,Win32,18-09-23,18:33:49,other,other,442636,1.0
303,32,red,no,last-month,male,1697650489533,1920,3,id20_v1_b7_r6.jpg,20,6,7,1,894,blue,Netscape,1920,1080,Win32,18-09-23,18:33:49,other,other,442636,0.0
304,32,red,no,last-month,male,1697650489533,1920,4,id5_v2_b7_r6.jpg,5,6,7,2,852,blue,Netscape,1920,1080,Win32,18-09-23,18:33:49,other,other,442636,0.0
305,32,blue,no,last-month,male,1697650489533,1920,5,id22_v1_b6_r7.jpg,22,7,6,1,926,red,Netscape,1920,1080,Win32,18-09-23,18:33:49,other,other,442636,0.0
306,32,red,no,last-month,male,1697650489533,1920,6,id8_v2_b5_r6.jpg,8,6,5,2,814,red,Netscape,1920,1080,Win32,18-09-23,18:33:49,other,other,442636,1.0
307,32,blue,no,last-month,male,1697650489533,1920,7,id7_v2_b7_r6.jpg,7,6,7,2,927,blue,Netscape,1920,1080,Win32,18-09-23,18:33:49,other,other,442636,1.0
308,32,red,no,last-month,male,1697650489533,1920,8,id1_v2_b5_r7.jpg,1,7,5,2,710,red,Netscape,1920,1080,Win32,18-09-23,18:33:49,other,other,442636,1.0
309,32,blue,no,last-month,male,1697650489533,1920,9,id15_v2_b8_r6.jpg,15,6,8,2,811,blue,Netscape,1920,1080,Win32,18-09-23,18:33:49,other,other,442636,1.0
310,32,blue,no,last-month,male,1697650489533,1920,10,id24_v2_b6_r7.jpg,24,7,6,2,606,red,Netscape,1920,1080,Win32,18-09-23,18:33:49,other,other,442636,0.0
311,32,blue,no,last-month,male,1697650489533,1920,11,id26_v1_b7_r6.jpg,26,6,7,1,1465,blue,Netscape,1920,1080,Win32,18-09-23,18:33:49,other,other,442636,1.0
312,32,red,no,last-month,male,1697650489533,1920,12,id27_v2_b6_r7.jpg,27,7,6,2,817,red,Netscape,1920,1080,Win32,18-09-23,18:33:49,other,other,442636,1.0
313,32,blue,no,last-month,male,1697650489533,1920,13,id16_v2_b7_r6.jpg,16,6,7,2,883,blue,Netscape,1920,1080,Win32,18-09-23,18:33:49,other,other,442636,1.0
314,32,blue,no,last-month,male,1697650489533,1920,14,id28_v2_b7_r6.jpg,28,6,7,2,844,blue,Netscape,1920,1080,Win32,18-09-23,18:33:49,other,other,442636,1.0
315,32,red,no,last-month,male,1697650489533,1920,15,id6_v1_b7_r5.jpg,6,5,7,1,861,blue,Netscape,1920,1080,Win32,18-09-23,18:33:49,other,other,442636,0.0
316,32,red,no,last-month,male,1697650489533,1920,16,id23_v1_b5_r6.jpg,23,6,5,1,837,red,Netscape,1920,1080,Win32,18-09-23,18:33:49,other,other,442636,1.0
317,32,blue,no,last-month,male,1697650489533,1920,17,id19_v2_b7_r6.jpg,19,6,7,2,1704,blue,Netscape,1920,1080,Win32,18-09-23,18:33:49,other,other,442636,1.0
318,32,blue,no,last-month,male,1697650489533,1920,18,id11_v1_b5_r6.jpg,11,6,5,1,1535,red,Netscape,1920,1080,Win32,18-09-23,18:33:49,other,other,442636,0.0
319,32,red,no,last-month,male,1697650489533,1920,19,id21_v1_b6_r7.jpg,21,7,6,1,860,red,Netscape,1920,1080,Win32,18-09-23,18:33:49,other,other,442636,1.0
320,32,blue,no,last-month,male,1697650489533,1920,20,id18_v2_b5_r7.jpg,18,7,5,2,917,red,Netscape,1920,1080,Win32,18-09-23,18:33:49,other,other,442636,0.0
321,32,red,no,last-month,male,1697650489533,1920,21,id13_v2_b6_r5.jpg,13,5,6,2,748,blue,Netscape,1920,1080,Win32,18-09-23,18:33:49,other,other,442636,0.0
322,32,red,no,last-month,male,1697650489533,1920,22,id30_v2_b6_r7.jpg,30,7,6,2,762,red,Netscape,1920,1080,Win32,18-09-23,18:33:49,other,other,442636,1.0
323,32,red,no,last-month,male,1697650489533,1920,23,id4_v2_b6_r5.jpg,4,5,6,2,1405,blue,Netscape,1920,1080,Win32,18-09-23,18:33:49,other,other,442636,0.0
324,32,blue,no,last-month,male,1697650489533,1920,24,id29_v2_b6_r7.jpg,29,7,6,2,696,red,Netscape,1920,1080,Win32,18-09-23,18:33:49,other,other,442636,0.0
325,32,red,no,last-month,male,1697650489533,1920,25,id14_v2_b6_r7.jpg,14,7,6,2,911,red,Netscape,1920,1080,Win32,18-09-23,18:33:49,other,other,442636,1.0
326,32,red,no,last-month,male,1697650489533,1920,26,id25_v2_b6_r7.jpg,25,7,6,2,1190,red,Netscape,1920,1080,Win32,18-09-23,18:33:49,other,other,442636,1.0
327,32,blue,no,last-month,male,1697650489533,1920,27,id3_v2_b6_r7.jpg,3,7,6,2,777,red,Netscape,1920,1080,Win32,18-09-23,18:33:49,other,other,442636,0.0
328,32,red,no,last-month,male,1697650489533,1920,28,id9_v1_b7_r5.jpg,9,5,7,1,893,blue,Netscape,1920,1080,Win32,18-09-23,18:33:49,other,other,442636,0.0
329,32,red,no,last-month,male,1697650489533,1920,29,id2_v2_b5_r6.jpg,2,6,5,2,541,red,Netscape,1920,1080,Win32,18-09-23,18:33:49,other,other,442636,1.0
330,32,blue,no,last-month,male,1697650489533,1920,30,id20_v2_b6_r7.jpg,20,7,6,2,731,red,Netscape,1920,1080,Win32,18-09-23,18:33:49,other,other,442636,0.0
331,32,blue,no,last-month,male,1697650489533,1920,31,id22_v2_b7_r6.jpg,22,6,7,2,673,blue,Netscape,1920,1080,Win32,18-09-23,18:33:49,other,other,442636,1.0
332,32,red,no,last-month,male,1697650489533,1920,32,id15_v1_b6_r8.jpg,15,8,6,1,1761,red,Netscape,1920,1080,Win32,18-09-23,18:33:49,other,other,442636,1.0
333,32,red,no,last-month,male,1697650489533,1920,33,id10_v1_b6_r7.jpg,10,7,6,1,789,red,Netscape,1920,1080,Win32,18-09-23,18:33:49,other,other,442636,1.0
334,32,blue,no,last-month,male,1697650489533,1920,34,id17_v2_b5_r6.jpg,17,6,5,2,1538,red,Netscape,1920,1080,Win32,18-09-23,18:33:49,other,other,442636,0.0
335,32,blue,no,last-month,male,1697650489533,1920,35,id5_v1_b6_r7.jpg,5,7,6,1,734,red,Netscape,1920,1080,Win32,18-09-23,18:33:49,other,other,442636,0.0
336,32,red,no,last-month,male,1697650489533,1920,36,id12_v2_b6_r7.jpg,12,7,6,2,948,red,Netscape,1920,1080,Win32,18-09-23,18:33:49,other,other,442636,1.0
337,32,blue,no,last-month,male,1697650489533,1920,37,id16_v1_b6_r7.jpg,16,7,6,1,569,red,Netscape,1920,1080,Win32,18-09-23,18:33:49,other,other,442636,0.0
338,32,red,no,last-month,male,1697650489533,1920,38,id7_v1_b6_r7.jpg,7,7,6,1,822,red,Netscape,1920,1080,Win32,18-09-23,18:33:49,other,other,442636,1.0
339,32,blue,no,last-month,male,1697650489533,1920,39,id26_v2_b6_r7.jpg,26,7,6,2,935,red,Netscape,1920,1080,Win32,18-09-23,18:33:49,other,other,442636,0.0
340,32,blue,no,last-month,male,1697650489533,1920,40,id8_v1_b6_r5.jpg,8,5,6,1,1221,blue,Netscape,1920,1080,Win32,18-09-23,18:33:49,other,other,442636,1.0
341,32,blue,no,last-month,male,1697650489533,1920,41,id1_v1_b7_r5.jpg,1,5,7,1,967,blue,Netscape,1920,1080,Win32,18-09-23,18:33:49,other,other,442636,1.0
342,32,blue,no,last-month,male,1697650489533,1920,42,id24_v1_b7_r6.jpg,24,6,7,1,1021,blue,Netscape,1920,1080,Win32,18-09-23,18:33:49,other,other,442636,1.0
343,32,blue,no,last-month,male,1697650489533,1920,43,id27_v1_b7_r6.jpg,27,6,7,1,798,blue,Netscape,1920,1080,Win32,18-09-23,18:33:49,other,other,442636,1.0
344,32,red,no,last-month,male,1697650489533,1920,44,id28_v1_b6_r7.jpg,28,7,6,1,969,red,Netscape,1920,1080,Win32,18-09-23,18:33:49,other,other,442636,1.0
345,32,blue,no,last-month,male,1697650489533,1920,45,id9_v2_b5_r7.jpg,9,7,5,2,685,red,Netscape,1920,1080,Win32,18-09-23,18:33:49,other,other,442636,0.0
346,32,blue,no,last-month,male,1697650489533,1920,46,id23_v2_b6_r5.jpg,23,5,6,2,1415,blue,Netscape,1920,1080,Win32,18-09-23,18:33:49,other,other,442636,1.0
347,32,blue,no,last-month,male,1697650489533,1920,47,id3_v1_b7_r6.jpg,3,6,7,1,1056,blue,Netscape,1920,1080,Win32,18-09-23,18:33:49,other,other,442636,1.0
348,32,blue,no,last-month,male,1697650489533,1920,48,id25_v1_b7_r6.jpg,25,6,7,1,929,blue,Netscape,1920,1080,Win32,18-09-23,18:33:49,other,other,442636,1.0
349,32,blue,no,last-month,male,1697650489533,1920,49,id11_v2_b6_r5.jpg,11,5,6,2,855,blue,Netscape,1920,1080,Win32,18-09-23,18:33:49,other,other,442636,1.0
350,32,red,no,last-month,male,1697650489533,1920,50,id4_v1_b5_r6.jpg,4,6,5,1,657,red,Netscape,1920,1080,Win32,18-09-23,18:33:49,other,other,442636,1.0
351,32,red,no,last-month,male,1697650489533,1920,51,id6_v2_b5_r7.jpg,6,7,5,2,969,red,Netscape,1920,1080,Win32,18-09-23,18:33:49,other,other,442636,1.0
352,32,blue,no,last-month,male,1697650489533,1920,52,id13_v1_b5_r6.jpg,13,6,5,1,1061,red,Netscape,1920,1080,Win32,18-09-23,18:33:49,other,other,442636,0.0
353,32,red,no,last-month,male,1697650489533,1920,53,id29_v1_b7_r6.jpg,29,6,7,1,606,blue,Netscape,1920,1080,Win32,18-09-23,18:33:49,other,other,442636,0.0
354,32,blue,no,last-month,male,1697650489533,1920,54,id18_v1_b7_r5.jpg,18,5,7,1,849,blue,Netscape,1920,1080,Win32,18-09-23,18:33:49,other,other,442636,1.0
355,32,red,no,last-month,male,1697650489533,1920,55,id19_v1_b6_r7.jpg,19,7,6,1,786,red,Netscape,1920,1080,Win32,18-09-23,18:33:49,other,other,442636,1.0
356,32,blue,no,last-month,male,1697650489533,1920,56,id21_v2_b7_r6.jpg,21,6,7,2,837,blue,Netscape,1920,1080,Win32,18-09-23,18:33:49,other,other,442636,1.0
357,32,blue,no,last-month,male,1697650489533,1920,57,id14_v1_b7_r6.jpg,14,6,7,1,1304,blue,Netscape,1920,1080,Win32,18-09-23,18:33:49,other,other,442636,1.0
358,32,blue,no,last-month,male,1697650489533,1920,58,id30_v1_b7_r6.jpg,30,6,7,1,638,blue,Netscape,1920,1080,Win32,18-09-23,18:33:49,other,other,442636,1.0
359,32,blue,no,last-month,male,1697650489533,1920,59,id2_v1_b6_r5.jpg,2,5,6,1,648,blue,Netscape,1920,1080,Win32,18-09-23,18:33:49,other,other,442636,1.0
360,29,blue,no,last-month,female,1697652535387,1280,0,id17_v1_b6_r5.jpg,17,5,6,1,4483,blue,Netscape,1920,1080,Win32,18-09-23,20:07:38,both,both,442691,1.0
361,29,blue,no,last-month,female,1697652535387,1280,1,id10_v2_b7_r6.jpg,10,6,7,2,1078,blue,Netscape,1920,1080,Win32,18-09-23,20:07:38,both,both,442691,1.0
362,29,red,no,last-month,female,1697652535387,1280,2,id12_v1_b7_r6.jpg,12,6,7,1,1466,blue,Netscape,1920,1080,Win32,18-09-23,20:07:38,both,both,442691,0.0
363,29,blue,no,last-month,female,1697652535387,1280,3,id20_v1_b7_r6.jpg,20,6,7,1,960,blue,Netscape,1920,1080,Win32,18-09-23,20:07:38,both,both,442691,1.0
364,29,red,no,last-month,female,1697652535387,1280,4,id5_v2_b7_r6.jpg,5,6,7,2,874,blue,Netscape,1920,1080,Win32,18-09-23,20:07:38,both,both,442691,0.0
365,29,blue,no,last-month,female,1697652535387,1280,5,id22_v1_b6_r7.jpg,22,7,6,1,590,red,Netscape,1920,1080,Win32,18-09-23,20:07:38,both,both,442691,0.0
366,29,blue,no,last-month,female,1697652535387,1280,6,id8_v2_b5_r6.jpg,8,6,5,2,515,red,Netscape,1920,1080,Win32,18-09-23,20:07:38,both,both,442691,0.0
367,29,red,no,last-month,female,1697652535387,1280,7,id7_v2_b7_r6.jpg,7,6,7,2,913,blue,Netscape,1920,1080,Win32,18-09-23,20:07:38,both,both,442691,0.0
368,29,blue,no,last-month,female,1697652535387,1280,8,id1_v2_b5_r7.jpg,1,7,5,2,1075,red,Netscape,1920,1080,Win32,18-09-23,20:07:38,both,both,442691,0.0
369,29,red,no,last-month,female,1697652535387,1280,9,id15_v2_b8_r6.jpg,15,6,8,2,866,blue,Netscape,1920,1080,Win32,18-09-23,20:07:38,both,both,442691,0.0
370,29,blue,no,last-month,female,1697652535387,1280,10,id24_v2_b6_r7.jpg,24,7,6,2,988,red,Netscape,1920,1080,Win32,18-09-23,20:07:38,both,both,442691,0.0
371,29,red,no,last-month,female,1697652535387,1280,11,id26_v1_b7_r6.jpg,26,6,7,1,621,blue,Netscape,1920,1080,Win32,18-09-23,20:07:38,both,both,442691,0.0
372,29,red,no,last-month,female,1697652535387,1280,12,id27_v2_b6_r7.jpg,27,7,6,2,890,red,Netscape,1920,1080,Win32,18-09-23,20:07:38,both,both,442691,1.0
373,29,blue,no,last-month,female,1697652535387,1280,13,id16_v2_b7_r6.jpg,16,6,7,2,742,blue,Netscape,1920,1080,Win32,18-09-23,20:07:38,both,both,442691,1.0
374,29,red,no,last-month,female,1697652535387,1280,14,id28_v2_b7_r6.jpg,28,6,7,2,817,blue,Netscape,1920,1080,Win32,18-09-23,20:07:38,both,both,442691,0.0
375,29,blue,no,last-month,female,1697652535387,1280,15,id6_v1_b7_r5.jpg,6,5,7,1,748,blue,Netscape,1920,1080,Win32,18-09-23,20:07:38,both,both,442691,1.0
376,29,red,no,last-month,female,1697652535387,1280,16,id23_v1_b5_r6.jpg,23,6,5,1,837,red,Netscape,1920,1080,Win32,18-09-23,20:07:38,both,both,442691,1.0
377,29,red,no,last-month,female,1697652535387,1280,17,id19_v2_b7_r6.jpg,19,6,7,2,902,blue,Netscape,1920,1080,Win32,18-09-23,20:07:38,both,both,442691,0.0
378,29,blue,no,last-month,female,1697652535387,1280,18,id11_v1_b5_r6.jpg,11,6,5,1,868,red,Netscape,1920,1080,Win32,18-09-23,20:07:38,both,both,442691,0.0
379,29,red,no,last-month,female,1697652535387,1280,19,id21_v1_b6_r7.jpg,21,7,6,1,696,red,Netscape,1920,1080,Win32,18-09-23,20:07:38,both,both,442691,1.0
380,29,blue,no,last-month,female,1697652535387,1280,20,id18_v2_b5_r7.jpg,18,7,5,2,964,red,Netscape,1920,1080,Win32,18-09-23,20:07:38,both,both,442691,0.0
381,29,blue,no,last-month,female,1697652535387,1280,21,id13_v2_b6_r5.jpg,13,5,6,2,1362,blue,Netscape,1920,1080,Win32,18-09-23,20:07:38,both,both,442691,1.0
382,29,red,no,last-month,female,1697652535387,1280,22,id30_v2_b6_r7.jpg,30,7,6,2,2679,red,Netscape,1920,1080,Win32,18-09-23,20:07:38,both,both,442691,1.0
383,29,red,no,last-month,female,1697652535387,1280,23,id4_v2_b6_r5.jpg,4,5,6,2,987,blue,Netscape,1920,1080,Win32,18-09-23,20:07:38,both,both,442691,0.0
384,29,blue,no,last-month,female,1697652535387,1280,24,id29_v2_b6_r7.jpg,29,7,6,2,1240,red,Netscape,1920,1080,Win32,18-09-23,20:07:38,both,both,442691,0.0
386,29,blue,no,last-month,female,1697652535387,1280,26,id25_v2_b6_r7.jpg,25,7,6,2,596,red,Netscape,1920,1080,Win32,18-09-23,20:07:38,both,both,442691,0.0
387,29,blue,no,last-month,female,1697652535387,1280,27,id3_v2_b6_r7.jpg,3,7,6,2,1120,red,Netscape,1920,1080,Win32,18-09-23,20:07:38,both,both,442691,0.0
388,29,red,no,last-month,female,1697652535387,1280,28,id9_v1_b7_r5.jpg,9,5,7,1,1143,blue,Netscape,1920,1080,Win32,18-09-23,20:07:38,both,both,442691,0.0
389,29,red,no,last-month,female,1697652535387,1280,29,id2_v2_b5_r6.jpg,2,6,5,2,1401,red,Netscape,1920,1080,Win32,18-09-23,20:07:38,both,both,442691,1.0
390,29,blue,no,last-month,female,1697652535387,1280,30,id20_v2_b6_r7.jpg,20,7,6,2,1172,red,Netscape,1920,1080,Win32,18-09-23,20:07:38,both,both,442691,0.0
391,29,blue,no,last-month,female,1697652535387,1280,31,id22_v2_b7_r6.jpg,22,6,7,2,2456,blue,Netscape,1920,1080,Win32,18-09-23,20:07:38,both,both,442691,1.0
392,29,blue,no,last-month,female,1697652535387,1280,32,id15_v1_b6_r8.jpg,15,8,6,1,926,red,Netscape,1920,1080,Win32,18-09-23,20:07:38,both,both,442691,0.0
393,29,red,no,last-month,female,1697652535387,1280,33,id10_v1_b6_r7.jpg,10,7,6,1,1086,red,Netscape,1920,1080,Win32,18-09-23,20:07:38,both,both,442691,1.0
394,29,blue,no,last-month,female,1697652535387,1280,34,id17_v2_b5_r6.jpg,17,6,5,2,1876,red,Netscape,1920,1080,Win32,18-09-23,20:07:38,both,both,442691,0.0
395,29,red,no,last-month,female,1697652535387,1280,35,id5_v1_b6_r7.jpg,5,7,6,1,1226,red,Netscape,1920,1080,Win32,18-09-23,20:07:38,both,both,442691,1.0
396,29,blue,no,last-month,female,1697652535387,1280,36,id12_v2_b6_r7.jpg,12,7,6,2,918,red,Netscape,1920,1080,Win32,18-09-23,20:07:38,both,both,442691,0.0
397,29,red,no,last-month,female,1697652535387,1280,37,id16_v1_b6_r7.jpg,16,7,6,1,1224,red,Netscape,1920,1080,Win32,18-09-23,20:07:38,both,both,442691,1.0
398,29,blue,no,last-month,female,1697652535387,1280,38,id7_v1_b6_r7.jpg,7,7,6,1,971,red,Netscape,1920,1080,Win32,18-09-23,20:07:38,both,both,442691,0.0
399,29,red,no,last-month,female,1697652535387,1280,39,id26_v2_b6_r7.jpg,26,7,6,2,1455,red,Netscape,1920,1080,Win32,18-09-23,20:07:38,both,both,442691,1.0
400,29,blue,no,last-month,female,1697652535387,1280,40,id8_v1_b6_r5.jpg,8,5,6,1,1127,blue,Netscape,1920,1080,Win32,18-09-23,20:07:38,both,both,442691,1.0
401,29,blue,no,last-month,female,1697652535387,1280,41,id1_v1_b7_r5.jpg,1,5,7,1,1576,blue,Netscape,1920,1080,Win32,18-09-23,20:07:38,both,both,442691,1.0
402,29,blue,no,last-month,female,1697652535387,1280,42,id24_v1_b7_r6.jpg,24,6,7,1,1515,blue,Netscape,1920,1080,Win32,18-09-23,20:07:38,both,both,442691,1.0
403,29,blue,no,last-month,female,1697652535387,1280,43,id27_v1_b7_r6.jpg,27,6,7,1,1204,blue,Netscape,1920,1080,Win32,18-09-23,20:07:38,both,both,442691,1.0
404,29,red,no,last-month,female,1697652535387,1280,44,id28_v1_b6_r7.jpg,28,7,6,1,661,red,Netscape,1920,1080,Win32,18-09-23,20:07:38,both,both,442691,1.0
405,29,blue,no,last-month,female,1697652535387,1280,45,id9_v2_b5_r7.jpg,9,7,5,2,1102,red,Netscape,1920,1080,Win32,18-09-23,20:07:38,both,both,442691,0.0
406,29,blue,no,last-month,female,1697652535387,1280,46,id23_v2_b6_r5.jpg,23,5,6,2,1223,blue,Netscape,1920,1080,Win32,18-09-23,20:07:38,both,both,442691,1.0
407,29,blue,no,last-month,female,1697652535387,1280,47,id3_v1_b7_r6.jpg,3,6,7,1,1098,blue,Netscape,1920,1080,Win32,18-09-23,20:07:38,both,both,442691,1.0
408,29,blue,no,last-month,female,1697652535387,1280,48,id25_v1_b7_r6.jpg,25,6,7,1,1423,blue,Netscape,1920,1080,Win32,18-09-23,20:07:38,both,both,442691,1.0
409,29,blue,no,last-month,female,1697652535387,1280,49,id11_v2_b6_r5.jpg,11,5,6,2,980,blue,Netscape,1920,1080,Win32,18-09-23,20:07:38,both,both,442691,1.0
410,29,red,no,last-month,female,1697652535387,1280,50,id4_v1_b5_r6.jpg,4,6,5,1,4436,red,Netscape,1920,1080,Win32,18-09-23,20:07:38,both,both,442691,1.0
411,29,blue,no,last-month,female,1697652535387,1280,51,id6_v2_b5_r7.jpg,6,7,5,2,790,red,Netscape,1920,1080,Win32,18-09-23,20:07:38,both,both,442691,0.0
412,29,red,no,last-month,female,1697652535387,1280,52,id13_v1_b5_r6.jpg,13,6,5,1,890,red,Netscape,1920,1080,Win32,18-09-23,20:07:38,both,both,442691,1.0
413,29,blue,no,last-month,female,1697652535387,1280,53,id29_v1_b7_r6.jpg,29,6,7,1,1042,blue,Netscape,1920,1080,Win32,18-09-23,20:07:38,both,both,442691,1.0
414,29,red,no,last-month,female,1697652535387,1280,54,id18_v1_b7_r5.jpg,18,5,7,1,972,blue,Netscape,1920,1080,Win32,18-09-23,20:07:38,both,both,442691,0.0
415,29,blue,no,last-month,female,1697652535387,1280,55,id19_v1_b6_r7.jpg,19,7,6,1,621,red,Netscape,1920,1080,Win32,18-09-23,20:07:38,both,both,442691,0.0
416,29,blue,no,last-month,female,1697652535387,1280,56,id21_v2_b7_r6.jpg,21,6,7,2,944,blue,Netscape,1920,1080,Win32,18-09-23,20:07:38,both,both,442691,1.0
418,29,blue,no,last-month,female,1697652535387,1280,58,id30_v1_b7_r6.jpg,30,6,7,1,1190,blue,Netscape,1920,1080,Win32,18-09-23,20:07:38,both,both,442691,1.0
419,29,blue,no,last-month,female,1697652535387,1280,59,id2_v1_b6_r5.jpg,2,5,6,1,1068,blue,Netscape,1920,1080,Win32,18-09-23,20:07:38,both,both,442691,1.0
420,28,blue,no,last-month,male,1697654884469,1232,0,id17_v1_b6_r5.jpg,17,5,6,1,1361,blue,Netscape,1280,800,Win32,18-09-23,20:47:34,other,blue,442752,1.0
421,28,blue,no,last-month,male,1697654884469,1232,1,id10_v2_b7_r6.jpg,10,6,7,2,1224,blue,Netscape,1280,800,Win32,18-09-23,20:47:34,other,blue,442752,1.0
422,28,blue,no,last-month,male,1697654884469,1232,2,id12_v1_b7_r6.jpg,12,6,7,1,1089,blue,Netscape,1280,800,Win32,18-09-23,20:47:34,other,blue,442752,1.0
423,28,blue,no,last-month,male,1697654884469,1232,3,id20_v1_b7_r6.jpg,20,6,7,1,1218,blue,Netscape,1280,800,Win32,18-09-23,20:47:34,other,blue,442752,1.0
424,28,red,no,last-month,male,1697654884469,1232,4,id5_v2_b7_r6.jpg,5,6,7,2,853,blue,Netscape,1280,800,Win32,18-09-23,20:47:34,other,blue,442752,0.0
425,28,red,no,last-month,male,1697654884469,1232,5,id22_v1_b6_r7.jpg,22,7,6,1,959,red,Netscape,1280,800,Win32,18-09-23,20:47:34,other,blue,442752,1.0
426,28,red,no,last-month,male,1697654884469,1232,6,id8_v2_b5_r6.jpg,8,6,5,2,777,red,Netscape,1280,800,Win32,18-09-23,20:47:34,other,blue,442752,1.0
427,28,blue,no,last-month,male,1697654884469,1232,7,id7_v2_b7_r6.jpg,7,6,7,2,2224,blue,Netscape,1280,800,Win32,18-09-23,20:47:34,other,blue,442752,1.0
428,28,red,no,last-month,male,1697654884469,1232,8,id1_v2_b5_r7.jpg,1,7,5,2,847,red,Netscape,1280,800,Win32,18-09-23,20:47:34,other,blue,442752,1.0
429,28,blue,no,last-month,male,1697654884469,1232,9,id15_v2_b8_r6.jpg,15,6,8,2,927,blue,Netscape,1280,800,Win32,18-09-23,20:47:34,other,blue,442752,1.0
430,28,red,no,last-month,male,1697654884469,1232,10,id24_v2_b6_r7.jpg,24,7,6,2,922,red,Netscape,1280,800,Win32,18-09-23,20:47:34,other,blue,442752,1.0
432,28,blue,no,last-month,male,1697654884469,1232,12,id27_v2_b6_r7.jpg,27,7,6,2,1268,red,Netscape,1280,800,Win32,18-09-23,20:47:34,other,blue,442752,0.0
433,28,blue,no,last-month,male,1697654884469,1232,13,id16_v2_b7_r6.jpg,16,6,7,2,1035,blue,Netscape,1280,800,Win32,18-09-23,20:47:34,other,blue,442752,1.0
434,28,blue,no,last-month,male,1697654884469,1232,14,id28_v2_b7_r6.jpg,28,6,7,2,703,blue,Netscape,1280,800,Win32,18-09-23,20:47:34,other,blue,442752,1.0
435,28,blue,no,last-month,male,1697654884469,1232,15,id6_v1_b7_r5.jpg,6,5,7,1,752,blue,Netscape,1280,800,Win32,18-09-23,20:47:34,other,blue,442752,1.0
436,28,blue,no,last-month,male,1697654884469,1232,16,id23_v1_b5_r6.jpg,23,6,5,1,745,red,Netscape,1280,800,Win32,18-09-23,20:47:34,other,blue,442752,0.0
437,28,blue,no,last-month,male,1697654884469,1232,17,id19_v2_b7_r6.jpg,19,6,7,2,1318,blue,Netscape,1280,800,Win32,18-09-23,20:47:34,other,blue,442752,1.0
438,28,blue,no,last-month,male,1697654884469,1232,18,id11_v1_b5_r6.jpg,11,6,5,1,648,red,Netscape,1280,800,Win32,18-09-23,20:47:34,other,blue,442752,0.0
439,28,red,no,last-month,male,1697654884469,1232,19,id21_v1_b6_r7.jpg,21,7,6,1,715,red,Netscape,1280,800,Win32,18-09-23,20:47:34,other,blue,442752,1.0
440,28,red,no,last-month,male,1697654884469,1232,20,id18_v2_b5_r7.jpg,18,7,5,2,1578,red,Netscape,1280,800,Win32,18-09-23,20:47:34,other,blue,442752,1.0
441,28,red,no,last-month,male,1697654884469,1232,21,id13_v2_b6_r5.jpg,13,5,6,2,621,blue,Netscape,1280,800,Win32,18-09-23,20:47:34,other,blue,442752,0.0
442,28,red,no,last-month,male,1697654884469,1232,22,id30_v2_b6_r7.jpg,30,7,6,2,747,red,Netscape,1280,800,Win32,18-09-23,20:47:34,other,blue,442752,1.0
443,28,blue,no,last-month,male,1697654884469,1232,23,id4_v2_b6_r5.jpg,4,5,6,2,974,blue,Netscape,1280,800,Win32,18-09-23,20:47:34,other,blue,442752,1.0
444,28,blue,no,last-month,male,1697654884469,1232,24,id29_v2_b6_r7.jpg,29,7,6,2,729,red,Netscape,1280,800,Win32,18-09-23,20:47:34,other,blue,442752,0.0
445,28,blue,no,last-month,male,1697654884469,1232,25,id14_v2_b6_r7.jpg,14,7,6,2,1485,red,Netscape,1280,800,Win32,18-09-23,20:47:34,other,blue,442752,0.0
446,28,red,no,last-month,male,1697654884469,1232,26,id25_v2_b6_r7.jpg,25,7,6,2,781,red,Netscape,1280,800,Win32,18-09-23,20:47:34,other,blue,442752,1.0
447,28,red,no,last-month,male,1697654884469,1232,27,id3_v2_b6_r7.jpg,3,7,6,2,760,red,Netscape,1280,800,Win32,18-09-23,20:47:34,other,blue,442752,1.0
448,28,blue,no,last-month,male,1697654884469,1232,28,id9_v1_b7_r5.jpg,9,5,7,1,853,blue,Netscape,1280,800,Win32,18-09-23,20:47:34,other,blue,442752,1.0
449,28,red,no,last-month,male,1697654884469,1232,29,id2_v2_b5_r6.jpg,2,6,5,2,719,red,Netscape,1280,800,Win32,18-09-23,20:47:34,other,blue,442752,1.0
450,28,red,no,last-month,male,1697654884469,1232,30,id20_v2_b6_r7.jpg,20,7,6,2,801,red,Netscape,1280,800,Win32,18-09-23,20:47:34,other,blue,442752,1.0
451,28,blue,no,last-month,male,1697654884469,1232,31,id22_v2_b7_r6.jpg,22,6,7,2,835,blue,Netscape,1280,800,Win32,18-09-23,20:47:34,other,blue,442752,1.0
452,28,red,no,last-month,male,1697654884469,1232,32,id15_v1_b6_r8.jpg,15,8,6,1,964,red,Netscape,1280,800,Win32,18-09-23,20:47:34,other,blue,442752,1.0
453,28,red,no,last-month,male,1697654884469,1232,33,id10_v1_b6_r7.jpg,10,7,6,1,895,red,Netscape,1280,800,Win32,18-09-23,20:47:34,other,blue,442752,1.0
454,28,blue,no,last-month,male,1697654884469,1232,34,id17_v2_b5_r6.jpg,17,6,5,2,712,red,Netscape,1280,800,Win32,18-09-23,20:47:34,other,blue,442752,0.0
455,28,blue,no,last-month,male,1697654884469,1232,35,id5_v1_b6_r7.jpg,5,7,6,1,834,red,Netscape,1280,800,Win32,18-09-23,20:47:34,other,blue,442752,0.0
456,28,red,no,last-month,male,1697654884469,1232,36,id12_v2_b6_r7.jpg,12,7,6,2,737,red,Netscape,1280,800,Win32,18-09-23,20:47:34,other,blue,442752,1.0
457,28,blue,no,last-month,male,1697654884469,1232,37,id16_v1_b6_r7.jpg,16,7,6,1,727,red,Netscape,1280,800,Win32,18-09-23,20:47:34,other,blue,442752,0.0
458,28,red,no,last-month,male,1697654884469,1232,38,id7_v1_b6_r7.jpg,7,7,6,1,707,red,Netscape,1280,800,Win32,18-09-23,20:47:34,other,blue,442752,1.0
460,28,blue,no,last-month,male,1697654884469,1232,40,id8_v1_b6_r5.jpg,8,5,6,1,894,blue,Netscape,1280,800,Win32,18-09-23,20:47:34,other,blue,442752,1.0
461,28,blue,no,last-month,male,1697654884469,1232,41,id1_v1_b7_r5.jpg,1,5,7,1,632,blue,Netscape,1280,800,Win32,18-09-23,20:47:34,other,blue,442752,1.0
462,28,blue,no,last-month,male,1697654884469,1232,42,id24_v1_b7_r6.jpg,24,6,7,1,892,blue,Netscape,1280,800,Win32,18-09-23,20:47:34,other,blue,442752,1.0
463,28,blue,no,last-month,male,1697654884469,1232,43,id27_v1_b7_r6.jpg,27,6,7,1,732,blue,Netscape,1280,800,Win32,18-09-23,20:47:34,other,blue,442752,1.0
464,28,red,no,last-month,male,1697654884469,1232,44,id28_v1_b6_r7.jpg,28,7,6,1,568,red,Netscape,1280,800,Win32,18-09-23,20:47:34,other,blue,442752,1.0
465,28,red,no,last-month,male,1697654884469,1232,45,id9_v2_b5_r7.jpg,9,7,5,2,562,red,Netscape,1280,800,Win32,18-09-23,20:47:34,other,blue,442752,1.0
466,28,blue,no,last-month,male,1697654884469,1232,46,id23_v2_b6_r5.jpg,23,5,6,2,1320,blue,Netscape,1280,800,Win32,18-09-23,20:47:34,other,blue,442752,1.0
467,28,blue,no,last-month,male,1697654884469,1232,47,id3_v1_b7_r6.jpg,3,6,7,1,766,blue,Netscape,1280,800,Win32,18-09-23,20:47:34,other,blue,442752,1.0
468,28,blue,no,last-month,male,1697654884469,1232,48,id25_v1_b7_r6.jpg,25,6,7,1,898,blue,Netscape,1280,800,Win32,18-09-23,20:47:34,other,blue,442752,1.0
469,28,blue,no,last-month,male,1697654884469,1232,49,id11_v2_b6_r5.jpg,11,5,6,2,780,blue,Netscape,1280,800,Win32,18-09-23,20:47:34,other,blue,442752,1.0
470,28,red,no,last-month,male,1697654884469,1232,50,id4_v1_b5_r6.jpg,4,6,5,1,1358,red,Netscape,1280,800,Win32,18-09-23,20:47:34,other,blue,442752,1.0
471,28,red,no,last-month,male,1697654884469,1232,51,id6_v2_b5_r7.jpg,6,7,5,2,852,red,Netscape,1280,800,Win32,18-09-23,20:47:34,other,blue,442752,1.0
472,28,blue,no,last-month,male,1697654884469,1232,52,id13_v1_b5_r6.jpg,13,6,5,1,837,red,Netscape,1280,800,Win32,18-09-23,20:47:34,other,blue,442752,0.0
473,28,red,no,last-month,male,1697654884469,1232,53,id29_v1_b7_r6.jpg,29,6,7,1,719,blue,Netscape,1280,800,Win32,18-09-23,20:47:34,other,blue,442752,0.0
474,28,blue,no,last-month,male,1697654884469,1232,54,id18_v1_b7_r5.jpg,18,5,7,1,1267,blue,Netscape,1280,800,Win32,18-09-23,20:47:34,other,blue,442752,1.0
475,28,blue,no,last-month,male,1697654884469,1232,55,id19_v1_b6_r7.jpg,19,7,6,1,764,red,Netscape,1280,800,Win32,18-09-23,20:47:34,other,blue,442752,0.0
476,28,red,no,last-month,male,1697654884469,1232,56,id21_v2_b7_r6.jpg,21,6,7,2,767,blue,Netscape,1280,800,Win32,18-09-23,20:47:34,other,blue,442752,0.0
477,28,blue,no,last-month,male,1697654884469,1232,57,id14_v1_b7_r6.jpg,14,6,7,1,845,blue,Netscape,1280,800,Win32,18-09-23,20:47:34,other,blue,442752,1.0
478,28,blue,no,last-month,male,1697654884469,1232,58,id30_v1_b7_r6.jpg,30,6,7,1,863,blue,Netscape,1280,800,Win32,18-09-23,20:47:34,other,blue,442752,1.0
479,28,blue,no,last-month,male,1697654884469,1232,59,id2_v1_b6_r5.jpg,2,5,6,1,583,blue,Netscape,1280,800,Win32,18-09-23,20:47:34,other,blue,442752,1.0
540,30,blue,no,last-month,male,1697736141378,1470,0,id17_v1_b6_r5.jpg,17,5,6,1,3705,blue,Netscape,1470,956,MacIntel,19-09-23,19:21:26,blue,blue,443820,1.0
541,30,blue,no,last-month,male,1697736141378,1470,1,id10_v2_b7_r6.jpg,10,6,7,2,4566,blue,Netscape,1470,956,MacIntel,19-09-23,19:21:26,blue,blue,443820,1.0
542,30,red,no,last-month,male,1697736141378,1470,2,id12_v1_b7_r6.jpg,12,6,7,1,705,blue,Netscape,1470,956,MacIntel,19-09-23,19:21:26,blue,blue,443820,0.0
543,30,red,no,last-month,male,1697736141378,1470,3,id20_v1_b7_r6.jpg,20,6,7,1,1601,blue,Netscape,1470,956,MacIntel,19-09-23,19:21:26,blue,blue,443820,0.0
544,30,red,no,last-month,male,1697736141378,1470,4,id5_v2_b7_r6.jpg,5,6,7,2,535,blue,Netscape,1470,956,MacIntel,19-09-23,19:21:26,blue,blue,443820,0.0
545,30,blue,no,last-month,male,1697736141378,1470,5,id22_v1_b6_r7.jpg,22,7,6,1,541,red,Netscape,1470,956,MacIntel,19-09-23,19:21:26,blue,blue,443820,0.0
546,30,blue,no,last-month,male,1697736141378,1470,6,id8_v2_b5_r6.jpg,8,6,5,2,564,red,Netscape,1470,956,MacIntel,19-09-23,19:21:26,blue,blue,443820,0.0
548,30,red,no,last-month,male,1697736141378,1470,8,id1_v2_b5_r7.jpg,1,7,5,2,1638,red,Netscape,1470,956,MacIntel,19-09-23,19:21:26,blue,blue,443820,1.0
549,30,blue,no,last-month,male,1697736141378,1470,9,id15_v2_b8_r6.jpg,15,6,8,2,2500,blue,Netscape,1470,956,MacIntel,19-09-23,19:21:26,blue,blue,443820,1.0
550,30,blue,no,last-month,male,1697736141378,1470,10,id24_v2_b6_r7.jpg,24,7,6,2,990,red,Netscape,1470,956,MacIntel,19-09-23,19:21:26,blue,blue,443820,0.0
551,30,blue,no,last-month,male,1697736141378,1470,11,id26_v1_b7_r6.jpg,26,6,7,1,4005,blue,Netscape,1470,956,MacIntel,19-09-23,19:21:26,blue,blue,443820,1.0
552,30,red,no,last-month,male,1697736141378,1470,12,id27_v2_b6_r7.jpg,27,7,6,2,3111,red,Netscape,1470,956,MacIntel,19-09-23,19:21:26,blue,blue,443820,1.0
553,30,blue,no,last-month,male,1697736141378,1470,13,id16_v2_b7_r6.jpg,16,6,7,2,3762,blue,Netscape,1470,956,MacIntel,19-09-23,19:21:26,blue,blue,443820,1.0
555,30,blue,no,last-month,male,1697736141378,1470,15,id6_v1_b7_r5.jpg,6,5,7,1,505,blue,Netscape,1470,956,MacIntel,19-09-23,19:21:26,blue,blue,443820,1.0
556,30,red,no,last-month,male,1697736141378,1470,16,id23_v1_b5_r6.jpg,23,6,5,1,820,red,Netscape,1470,956,MacIntel,19-09-23,19:21:26,blue,blue,443820,1.0
557,30,blue,no,last-month,male,1697736141378,1470,17,id19_v2_b7_r6.jpg,19,6,7,2,1117,blue,Netscape,1470,956,MacIntel,19-09-23,19:21:26,blue,blue,443820,1.0
558,30,blue,no,last-month,male,1697736141378,1470,18,id11_v1_b5_r6.jpg,11,6,5,1,2291,red,Netscape,1470,956,MacIntel,19-09-23,19:21:26,blue,blue,443820,0.0
560,30,red,no,last-month,male,1697736141378,1470,20,id18_v2_b5_r7.jpg,18,7,5,2,698,red,Netscape,1470,956,MacIntel,19-09-23,19:21:26,blue,blue,443820,1.0
561,30,red,no,last-month,male,1697736141378,1470,21,id13_v2_b6_r5.jpg,13,5,6,2,913,blue,Netscape,1470,956,MacIntel,19-09-23,19:21:26,blue,blue,443820,0.0
562,30,blue,no,last-month,male,1697736141378,1470,22,id30_v2_b6_r7.jpg,30,7,6,2,703,red,Netscape,1470,956,MacIntel,19-09-23,19:21:26,blue,blue,443820,0.0
563,30,red,no,last-month,male,1697736141378,1470,23,id4_v2_b6_r5.jpg,4,5,6,2,1037,blue,Netscape,1470,956,MacIntel,19-09-23,19:21:26,blue,blue,443820,0.0
564,30,red,no,last-month,male,1697736141378,1470,24,id29_v2_b6_r7.jpg,29,7,6,2,809,red,Netscape,1470,956,MacIntel,19-09-23,19:21:26,blue,blue,443820,1.0
565,30,blue,no,last-month,male,1697736141378,1470,25,id14_v2_b6_r7.jpg,14,7,6,2,800,red,Netscape,1470,956,MacIntel,19-09-23,19:21:26,blue,blue,443820,0.0
566,30,blue,no,last-month,male,1697736141378,1470,26,id25_v2_b6_r7.jpg,25,7,6,2,2101,red,Netscape,1470,956,MacIntel,19-09-23,19:21:26,blue,blue,443820,0.0
567,30,blue,no,last-month,male,1697736141378,1470,27,id3_v2_b6_r7.jpg,3,7,6,2,1746,red,Netscape,1470,956,MacIntel,19-09-23,19:21:26,blue,blue,443820,0.0
568,30,blue,no,last-month,male,1697736141378,1470,28,id9_v1_b7_r5.jpg,9,5,7,1,5134,blue,Netscape,1470,956,MacIntel,19-09-23,19:21:26,blue,blue,443820,1.0
569,30,red,no,last-month,male,1697736141378,1470,29,id2_v2_b5_r6.jpg,2,6,5,2,741,red,Netscape,1470,956,MacIntel,19-09-23,19:21:26,blue,blue,443820,1.0
570,30,red,no,last-month,male,1697736141378,1470,30,id20_v2_b6_r7.jpg,20,7,6,2,2062,red,Netscape,1470,956,MacIntel,19-09-23,19:21:26,blue,blue,443820,1.0
571,30,red,no,last-month,male,1697736141378,1470,31,id22_v2_b7_r6.jpg,22,6,7,2,1385,blue,Netscape,1470,956,MacIntel,19-09-23,19:21:26,blue,blue,443820,0.0
572,30,red,no,last-month,male,1697736141378,1470,32,id15_v1_b6_r8.jpg,15,8,6,1,3827,red,Netscape,1470,956,MacIntel,19-09-23,19:21:26,blue,blue,443820,1.0
573,30,red,no,last-month,male,1697736141378,1470,33,id10_v1_b6_r7.jpg,10,7,6,1,817,red,Netscape,1470,956,MacIntel,19-09-23,19:21:26,blue,blue,443820,1.0
574,30,red,no,last-month,male,1697736141378,1470,34,id17_v2_b5_r6.jpg,17,6,5,2,2348,red,Netscape,1470,956,MacIntel,19-09-23,19:21:26,blue,blue,443820,1.0
575,30,red,no,last-month,male,1697736141378,1470,35,id5_v1_b6_r7.jpg,5,7,6,1,894,red,Netscape,1470,956,MacIntel,19-09-23,19:21:26,blue,blue,443820,1.0
576,30,red,no,last-month,male,1697736141378,1470,36,id12_v2_b6_r7.jpg,12,7,6,2,1763,red,Netscape,1470,956,MacIntel,19-09-23,19:21:26,blue,blue,443820,1.0
577,30,blue,no,last-month,male,1697736141378,1470,37,id16_v1_b6_r7.jpg,16,7,6,1,569,red,Netscape,1470,956,MacIntel,19-09-23,19:21:26,blue,blue,443820,0.0
579,30,blue,no,last-month,male,1697736141378,1470,39,id26_v2_b6_r7.jpg,26,7,6,2,1334,red,Netscape,1470,956,MacIntel,19-09-23,19:21:26,blue,blue,443820,0.0
580,30,blue,no,last-month,male,1697736141378,1470,40,id8_v1_b6_r5.jpg,8,5,6,1,1042,blue,Netscape,1470,956,MacIntel,19-09-23,19:21:26,blue,blue,443820,1.0
581,30,blue,no,last-month,male,1697736141378,1470,41,id1_v1_b7_r5.jpg,1,5,7,1,1222,blue,Netscape,1470,956,MacIntel,19-09-23,19:21:26,blue,blue,443820,1.0
582,30,red,no,last-month,male,1697736141378,1470,42,id24_v1_b7_r6.jpg,24,6,7,1,934,blue,Netscape,1470,956,MacIntel,19-09-23,19:21:26,blue,blue,443820,0.0
583,30,red,no,last-month,male,1697736141378,1470,43,id27_v1_b7_r6.jpg,27,6,7,1,659,blue,Netscape,1470,956,MacIntel,19-09-23,19:21:26,blue,blue,443820,0.0
585,30,blue,no,last-month,male,1697736141378,1470,45,id9_v2_b5_r7.jpg,9,7,5,2,495,red,Netscape,1470,956,MacIntel,19-09-23,19:21:26,blue,blue,443820,0.0
586,30,red,no,last-month,male,1697736141378,1470,46,id23_v2_b6_r5.jpg,23,5,6,2,457,blue,Netscape,1470,956,MacIntel,19-09-23,19:21:26,blue,blue,443820,0.0
587,30,red,no,last-month,male,1697736141378,1470,47,id3_v1_b7_r6.jpg,3,6,7,1,1421,blue,Netscape,1470,956,MacIntel,19-09-23,19:21:26,blue,blue,443820,0.0
588,30,blue,no,last-month,male,1697736141378,1470,48,id25_v1_b7_r6.jpg,25,6,7,1,1436,blue,Netscape,1470,956,MacIntel,19-09-23,19:21:26,blue,blue,443820,1.0
589,30,red,no,last-month,male,1697736141378,1470,49,id11_v2_b6_r5.jpg,11,5,6,2,1249,blue,Netscape,1470,956,MacIntel,19-09-23,19:21:26,blue,blue,443820,0.0
590,30,red,no,last-month,male,1697736141378,1470,50,id4_v1_b5_r6.jpg,4,6,5,1,581,red,Netscape,1470,956,MacIntel,19-09-23,19:21:26,blue,blue,443820,1.0
591,30,red,no,last-month,male,1697736141378,1470,51,id6_v2_b5_r7.jpg,6,7,5,2,290,red,Netscape,1470,956,MacIntel,19-09-23,19:21:26,blue,blue,443820,1.0
592,30,blue,no,last-month,male,1697736141378,1470,52,id13_v1_b5_r6.jpg,13,6,5,1,605,red,Netscape,1470,956,MacIntel,19-09-23,19:21:26,blue,blue,443820,0.0
593,30,red,no,last-month,male,1697736141378,1470,53,id29_v1_b7_r6.jpg,29,6,7,1,610,blue,Netscape,1470,956,MacIntel,19-09-23,19:21:26,blue,blue,443820,0.0
594,30,blue,no,last-month,male,1697736141378,1470,54,id18_v1_b7_r5.jpg,18,5,7,1,722,blue,Netscape,1470,956,MacIntel,19-09-23,19:21:26,blue,blue,443820,1.0
595,30,red,no,last-month,male,1697736141378,1470,55,id19_v1_b6_r7.jpg,19,7,6,1,367,red,Netscape,1470,956,MacIntel,19-09-23,19:21:26,blue,blue,443820,1.0
597,30,red,no,last-month,male,1697736141378,1470,57,id14_v1_b7_r6.jpg,14,6,7,1,1347,blue,Netscape,1470,956,MacIntel,19-09-23,19:21:26,blue,blue,443820,0.0
598,30,blue,no,last-month,male,1697736141378,1470,58,id30_v1_b7_r6.jpg,30,6,7,1,640,blue,Netscape,1470,956,MacIntel,19-09-23,19:21:26,blue,blue,443820,1.0
599,30,blue,no,last-month,male,1697736141378,1470,59,id2_v1_b6_r5.jpg,2,5,6,1,492,blue,Netscape,1470,956,MacIntel,19-09-23,19:21:26,blue,blue,443820,1.0
660,24,blue,no,more,male,1697740029644,1780,0,id17_v1_b6_r5.jpg,17,5,6,1,1634,blue,Netscape,1800,1169,MacIntel,19-09-23,20:26:19,other,blue,443927,1.0
661,24,blue,no,more,male,1697740029644,1780,1,id10_v2_b7_r6.jpg,10,6,7,2,588,blue,Netscape,1800,1169,MacIntel,19-09-23,20:26:19,other,blue,443927,1.0
662,24,blue,no,more,male,1697740029644,1780,2,id12_v1_b7_r6.jpg,12,6,7,1,576,blue,Netscape,1800,1169,MacIntel,19-09-23,20:26:19,other,blue,443927,1.0
663,24,blue,no,more,male,1697740029644,1780,3,id20_v1_b7_r6.jpg,20,6,7,1,849,blue,Netscape,1800,1169,MacIntel,19-09-23,20:26:19,other,blue,443927,1.0
664,24,red,no,more,male,1697740029644,1780,4,id5_v2_b7_r6.jpg,5,6,7,2,755,blue,Netscape,1800,1169,MacIntel,19-09-23,20:26:19,other,blue,443927,0.0
665,24,red,no,more,male,1697740029644,1780,5,id22_v1_b6_r7.jpg,22,7,6,1,894,red,Netscape,1800,1169,MacIntel,19-09-23,20:26:19,other,blue,443927,1.0
666,24,red,no,more,male,1697740029644,1780,6,id8_v2_b5_r6.jpg,8,6,5,2,460,red,Netscape,1800,1169,MacIntel,19-09-23,20:26:19,other,blue,443927,1.0
667,24,blue,no,more,male,1697740029644,1780,7,id7_v2_b7_r6.jpg,7,6,7,2,826,blue,Netscape,1800,1169,MacIntel,19-09-23,20:26:19,other,blue,443927,1.0
668,24,red,no,more,male,1697740029644,1780,8,id1_v2_b5_r7.jpg,1,7,5,2,572,red,Netscape,1800,1169,MacIntel,19-09-23,20:26:19,other,blue,443927,1.0
669,24,red,no,more,male,1697740029644,1780,9,id15_v2_b8_r6.jpg,15,6,8,2,833,blue,Netscape,1800,1169,MacIntel,19-09-23,20:26:19,other,blue,443927,0.0
671,24,blue,no,more,male,1697740029644,1780,11,id26_v1_b7_r6.jpg,26,6,7,1,690,blue,Netscape,1800,1169,MacIntel,19-09-23,20:26:19,other,blue,443927,1.0
672,24,blue,no,more,male,1697740029644,1780,12,id27_v2_b6_r7.jpg,27,7,6,2,724,red,Netscape,1800,1169,MacIntel,19-09-23,20:26:19,other,blue,443927,0.0
673,24,red,no,more,male,1697740029644,1780,13,id16_v2_b7_r6.jpg,16,6,7,2,633,blue,Netscape,1800,1169,MacIntel,19-09-23,20:26:19,other,blue,443927,0.0
674,24,red,no,more,male,1697740029644,1780,14,id28_v2_b7_r6.jpg,28,6,7,2,768,blue,Netscape,1800,1169,MacIntel,19-09-23,20:26:19,other,blue,443927,0.0
675,24,blue,no,more,male,1697740029644,1780,15,id6_v1_b7_r5.jpg,6,5,7,1,404,blue,Netscape,1800,1169,MacIntel,19-09-23,20:26:19,other,blue,443927,1.0
676,24,red,no,more,male,1697740029644,1780,16,id23_v1_b5_r6.jpg,23,6,5,1,1289,red,Netscape,1800,1169,MacIntel,19-09-23,20:26:19,other,blue,443927,1.0
677,24,blue,no,more,male,1697740029644,1780,17,id19_v2_b7_r6.jpg,19,6,7,2,511,blue,Netscape,1800,1169,MacIntel,19-09-23,20:26:19,other,blue,443927,1.0
678,24,red,no,more,male,1697740029644,1780,18,id11_v1_b5_r6.jpg,11,6,5,1,846,red,Netscape,1800,1169,MacIntel,19-09-23,20:26:19,other,blue,443927,1.0
679,24,blue,no,more,male,1697740029644,1780,19,id21_v1_b6_r7.jpg,21,7,6,1,461,red,Netscape,1800,1169,MacIntel,19-09-23,20:26:19,other,blue,443927,0.0
680,24,red,no,more,male,1697740029644,1780,20,id18_v2_b5_r7.jpg,18,7,5,2,1029,red,Netscape,1800,1169,MacIntel,19-09-23,20:26:19,other,blue,443927,1.0
681,24,red,no,more,male,1697740029644,1780,21,id13_v2_b6_r5.jpg,13,5,6,2,870,blue,Netscape,1800,1169,MacIntel,19-09-23,20:26:19,other,blue,443927,0.0
682,24,red,no,more,male,1697740029644,1780,22,id30_v2_b6_r7.jpg,30,7,6,2,821,red,Netscape,1800,1169,MacIntel,19-09-23,20:26:19,other,blue,443927,1.0
683,24,blue,no,more,male,1697740029644,1780,23,id4_v2_b6_r5.jpg,4,5,6,2,755,blue,Netscape,1800,1169,MacIntel,19-09-23,20:26:19,other,blue,443927,1.0
684,24,blue,no,more,male,1697740029644,1780,24,id29_v2_b6_r7.jpg,29,7,6,2,638,red,Netscape,1800,1169,MacIntel,19-09-23,20:26:19,other,blue,443927,0.0
685,24,red,no,more,male,1697740029644,1780,25,id14_v2_b6_r7.jpg,14,7,6,2,666,red,Netscape,1800,1169,MacIntel,19-09-23,20:26:19,other,blue,443927,1.0
686,24,blue,no,more,male,1697740029644,1780,26,id25_v2_b6_r7.jpg,25,7,6,2,647,red,Netscape,1800,1169,MacIntel,19-09-23,20:26:19,other,blue,443927,0.0
687,24,blue,no,more,male,1697740029644,1780,27,id3_v2_b6_r7.jpg,3,7,6,2,387,red,Netscape,1800,1169,MacIntel,19-09-23,20:26:19,other,blue,443927,0.0
688,24,red,no,more,male,1697740029644,1780,28,id9_v1_b7_r5.jpg,9,5,7,1,466,blue,Netscape,1800,1169,MacIntel,19-09-23,20:26:19,other,blue,443927,0.0
689,24,red,no,more,male,1697740029644,1780,29,id2_v2_b5_r6.jpg,2,6,5,2,475,red,Netscape,1800,1169,MacIntel,19-09-23,20:26:19,other,blue,443927,1.0
690,24,red,no,more,male,1697740029644,1780,30,id20_v2_b6_r7.jpg,20,7,6,2,675,red,Netscape,1800,1169,MacIntel,19-09-23,20:26:19,other,blue,443927,1.0
691,24,blue,no,more,male,1697740029644,1780,31,id22_v2_b7_r6.jpg,22,6,7,2,839,blue,Netscape,1800,1169,MacIntel,19-09-23,20:26:19,other,blue,443927,1.0
692,24,blue,no,more,male,1697740029644,1780,32,id15_v1_b6_r8.jpg,15,8,6,1,695,red,Netscape,1800,1169,MacIntel,19-09-23,20:26:19,other,blue,443927,0.0
693,24,red,no,more,male,1697740029644,1780,33,id10_v1_b6_r7.jpg,10,7,6,1,727,red,Netscape,1800,1169,MacIntel,19-09-23,20:26:19,other,blue,443927,1.0
694,24,blue,no,more,male,1697740029644,1780,34,id17_v2_b5_r6.jpg,17,6,5,2,730,red,Netscape,1800,1169,MacIntel,19-09-23,20:26:19,other,blue,443927,0.0
695,24,red,no,more,male,1697740029644,1780,35,id5_v1_b6_r7.jpg,5,7,6,1,1965,red,Netscape,1800,1169,MacIntel,19-09-23,20:26:19,other,blue,443927,1.0
696,24,blue,no,more,male,1697740029644,1780,36,id12_v2_b6_r7.jpg,12,7,6,2,716,red,Netscape,1800,1169,MacIntel,19-09-23,20:26:19,other,blue,443927,0.0
697,24,blue,no,more,male,1697740029644,1780,37,id16_v1_b6_r7.jpg,16,7,6,1,999,red,Netscape,1800,1169,MacIntel,19-09-23,20:26:19,other,blue,443927,0.0
698,24,red,no,more,male,1697740029644,1780,38,id7_v1_b6_r7.jpg,7,7,6,1,602,red,Netscape,1800,1169,MacIntel,19-09-23,20:26:19,other,blue,443927,1.0
699,24,red,no,more,male,1697740029644,1780,39,id26_v2_b6_r7.jpg,26,7,6,2,940,red,Netscape,1800,1169,MacIntel,19-09-23,20:26:19,other,blue,443927,1.0
700,24,blue,no,more,male,1697740029644,1780,40,id8_v1_b6_r5.jpg,8,5,6,1,445,blue,Netscape,1800,1169,MacIntel,19-09-23,20:26:19,other,blue,443927,1.0
701,24,red,no,more,male,1697740029644,1780,41,id1_v1_b7_r5.jpg,1,5,7,1,491,blue,Netscape,1800,1169,MacIntel,19-09-23,20:26:19,other,blue,443927,0.0
703,24,red,no,more,male,1697740029644,1780,43,id27_v1_b7_r6.jpg,27,6,7,1,394,blue,Netscape,1800,1169,MacIntel,19-09-23,20:26:19,other,blue,443927,0.0
704,24,blue,no,more,male,1697740029644,1780,44,id28_v1_b6_r7.jpg,28,7,6,1,841,red,Netscape,1800,1169,MacIntel,19-09-23,20:26:19,other,blue,443927,0.0
705,24,red,no,more,male,1697740029644,1780,45,id9_v2_b5_r7.jpg,9,7,5,2,539,red,Netscape,1800,1169,MacIntel,19-09-23,20:26:19,other,blue,443927,1.0
706,24,blue,no,more,male,1697740029644,1780,46,id23_v2_b6_r5.jpg,23,5,6,2,430,blue,Netscape,1800,1169,MacIntel,19-09-23,20:26:19,other,blue,443927,1.0
707,24,red,no,more,male,1697740029644,1780,47,id3_v1_b7_r6.jpg,3,6,7,1,458,blue,Netscape,1800,1169,MacIntel,19-09-23,20:26:19,other,blue,443927,0.0
708,24,blue,no,more,male,1697740029644,1780,48,id25_v1_b7_r6.jpg,25,6,7,1,980,blue,Netscape,1800,1169,MacIntel,19-09-23,20:26:19,other,blue,443927,1.0
709,24,blue,no,more,male,1697740029644,1780,49,id11_v2_b6_r5.jpg,11,5,6,2,723,blue,Netscape,1800,1169,MacIntel,19-09-23,20:26:19,other,blue,443927,1.0
710,24,red,no,more,male,1697740029644,1780,50,id4_v1_b5_r6.jpg,4,6,5,1,754,red,Netscape,1800,1169,MacIntel,19-09-23,20:26:19,other,blue,443927,1.0
711,24,red,no,more,male,1697740029644,1780,51,id6_v2_b5_r7.jpg,6,7,5,2,852,red,Netscape,1800,1169,MacIntel,19-09-23,20:26:19,other,blue,443927,1.0
712,24,blue,no,more,male,1697740029644,1780,52,id13_v1_b5_r6.jpg,13,6,5,1,584,red,Netscape,1800,1169,MacIntel,19-09-23,20:26:19,other,blue,443927,0.0
713,24,red,no,more,male,1697740029644,1780,53,id29_v1_b7_r6.jpg,29,6,7,1,453,blue,Netscape,1800,1169,MacIntel,19-09-23,20:26:19,other,blue,443927,0.0
714,24,blue,no,more,male,1697740029644,1780,54,id18_v1_b7_r5.jpg,18,5,7,1,834,blue,Netscape,1800,1169,MacIntel,19-09-23,20:26:19,other,blue,443927,1.0
715,24,red,no,more,male,1697740029644,1780,55,id19_v1_b6_r7.jpg,19,7,6,1,429,red,Netscape,1800,1169,MacIntel,19-09-23,20:26:19,other,blue,443927,1.0
716,24,blue,no,more,male,1697740029644,1780,56,id21_v2_b7_r6.jpg,21,6,7,2,564,blue,Netscape,1800,1169,MacIntel,19-09-23,20:26:19,other,blue,443927,1.0
717,24,red,no,more,male,1697740029644,1780,57,id14_v1_b7_r6.jpg,14,6,7,1,759,blue,Netscape,1800,1169,MacIntel,19-09-23,20:26:19,other,blue,443927,0.0
718,24,blue,no,more,male,1697740029644,1780,58,id30_v1_b7_r6.jpg,30,6,7,1,895,blue,Netscape,1800,1169,MacIntel,19-09-23,20:26:19,other,blue,443927,1.0
719,24,blue,no,more,male,1697740029644,1780,59,id2_v1_b6_r5.jpg,2,5,6,1,590,blue,Netscape,1800,1169,MacIntel,19-09-23,20:26:19,other,blue,443927,1.0
720,32,blue,yes,last-month,male,1697741248905,1272,0,id17_v1_b6_r5.jpg,17,5,6,1,1533,blue,Netscape,1280,720,Win32,19-09-23,20:47:09,blue,red,443963,1.0
721,32,blue,yes,last-month,male,1697741248905,1272,1,id10_v2_b7_r6.jpg,10,6,7,2,1306,blue,Netscape,1280,720,Win32,19-09-23,20:47:09,blue,red,443963,1.0
722,32,blue,yes,last-month,male,1697741248905,1272,2,id12_v1_b7_r6.jpg,12,6,7,1,1169,blue,Netscape,1280,720,Win32,19-09-23,20:47:09,blue,red,443963,1.0
723,32,red,yes,last-month,male,1697741248905,1272,3,id20_v1_b7_r6.jpg,20,6,7,1,821,blue,Netscape,1280,720,Win32,19-09-23,20:47:09,blue,red,443963,0.0
724,32,blue,yes,last-month,male,1697741248905,1272,4,id5_v2_b7_r6.jpg,5,6,7,2,1063,blue,Netscape,1280,720,Win32,19-09-23,20:47:09,blue,red,443963,1.0
725,32,red,yes,last-month,male,1697741248905,1272,5,id22_v1_b6_r7.jpg,22,7,6,1,863,red,Netscape,1280,720,Win32,19-09-23,20:47:09,blue,red,443963,1.0
726,32,blue,yes,last-month,male,1697741248905,1272,6,id8_v2_b5_r6.jpg,8,6,5,2,2416,red,Netscape,1280,720,Win32,19-09-23,20:47:09,blue,red,443963,0.0
727,32,blue,yes,last-month,male,1697741248905,1272,7,id7_v2_b7_r6.jpg,7,6,7,2,2602,blue,Netscape,1280,720,Win32,19-09-23,20:47:09,blue,red,443963,1.0
728,32,red,yes,last-month,male,1697741248905,1272,8,id1_v2_b5_r7.jpg,1,7,5,2,1077,red,Netscape,1280,720,Win32,19-09-23,20:47:09,blue,red,443963,1.0
729,32,blue,yes,last-month,male,1697741248905,1272,9,id15_v2_b8_r6.jpg,15,6,8,2,779,blue,Netscape,1280,720,Win32,19-09-23,20:47:09,blue,red,443963,1.0
730,32,red,yes,last-month,male,1697741248905,1272,10,id24_v2_b6_r7.jpg,24,7,6,2,1239,red,Netscape,1280,720,Win32,19-09-23,20:47:09,blue,red,443963,1.0
731,32,red,yes,last-month,male,1697741248905,1272,11,id26_v1_b7_r6.jpg,26,6,7,1,840,blue,Netscape,1280,720,Win32,19-09-23,20:47:09,blue,red,443963,0.0
732,32,blue,yes,last-month,male,1697741248905,1272,12,id27_v2_b6_r7.jpg,27,7,6,2,2626,red,Netscape,1280,720,Win32,19-09-23,20:47:09,blue,red,443963,0.0
733,32,red,yes,last-month,male,1697741248905,1272,13,id16_v2_b7_r6.jpg,16,6,7,2,1378,blue,Netscape,1280,720,Win32,19-09-23,20:47:09,blue,red,443963,0.0
734,32,blue,yes,last-month,male,1697741248905,1272,14,id28_v2_b7_r6.jpg,28,6,7,2,983,blue,Netscape,1280,720,Win32,19-09-23,20:47:09,blue,red,443963,1.0
735,32,blue,yes,last-month,male,1697741248905,1272,15,id6_v1_b7_r5.jpg,6,5,7,1,1218,blue,Netscape,1280,720,Win32,19-09-23,20:47:09,blue,red,443963,1.0
736,32,blue,yes,last-month,male,1697741248905,1272,16,id23_v1_b5_r6.jpg,23,6,5,1,964,red,Netscape,1280,720,Win32,19-09-23,20:47:09,blue,red,443963,0.0
737,32,blue,yes,last-month,male,1697741248905,1272,17,id19_v2_b7_r6.jpg,19,6,7,2,1192,blue,Netscape,1280,720,Win32,19-09-23,20:47:09,blue,red,443963,1.0
738,32,red,yes,last-month,male,1697741248905,1272,18,id11_v1_b5_r6.jpg,11,6,5,1,803,red,Netscape,1280,720,Win32,19-09-23,20:47:09,blue,red,443963,1.0
739,32,red,yes,last-month,male,1697741248905,1272,19,id21_v1_b6_r7.jpg,21,7,6,1,4534,red,Netscape,1280,720,Win32,19-09-23,20:47:09,blue,red,443963,1.0
740,32,blue,yes,last-month,male,1697741248905,1272,20,id18_v2_b5_r7.jpg,18,7,5,2,1772,red,Netscape,1280,720,Win32,19-09-23,20:47:09,blue,red,443963,0.0
741,32,blue,yes,last-month,male,1697741248905,1272,21,id13_v2_b6_r5.jpg,13,5,6,2,1896,blue,Netscape,1280,720,Win32,19-09-23,20:47:09,blue,red,443963,1.0
742,32,blue,yes,last-month,male,1697741248905,1272,22,id30_v2_b6_r7.jpg,30,7,6,2,1896,red,Netscape,1280,720,Win32,19-09-23,20:47:09,blue,red,443963,0.0
743,32,red,yes,last-month,male,1697741248905,1272,23,id4_v2_b6_r5.jpg,4,5,6,2,1503,blue,Netscape,1280,720,Win32,19-09-23,20:47:09,blue,red,443963,0.0
744,32,red,yes,last-month,male,1697741248905,1272,24,id29_v2_b6_r7.jpg,29,7,6,2,1230,red,Netscape,1280,720,Win32,19-09-23,20:47:09,blue,red,443963,1.0
745,32,red,yes,last-month,male,1697741248905,1272,25,id14_v2_b6_r7.jpg,14,7,6,2,4128,red,Netscape,1280,720,Win32,19-09-23,20:47:09,blue,red,443963,1.0
746,32,red,yes,last-month,male,1697741248905,1272,26,id25_v2_b6_r7.jpg,25,7,6,2,1278,red,Netscape,1280,720,Win32,19-09-23,20:47:09,blue,red,443963,1.0
747,32,red,yes,last-month,male,1697741248905,1272,27,id3_v2_b6_r7.jpg,3,7,6,2,2644,red,Netscape,1280,720,Win32,19-09-23,20:47:09,blue,red,443963,1.0
748,32,blue,yes,last-month,male,1697741248905,1272,28,id9_v1_b7_r5.jpg,9,5,7,1,971,blue,Netscape,1280,720,Win32,19-09-23,20:47:09,blue,red,443963,1.0
749,32,red,yes,last-month,male,1697741248905,1272,29,id2_v2_b5_r6.jpg,2,6,5,2,1359,red,Netscape,1280,720,Win32,19-09-23,20:47:09,blue,red,443963,1.0
750,32,red,yes,last-month,male,1697741248905,1272,30,id20_v2_b6_r7.jpg,20,7,6,2,3980,red,Netscape,1280,720,Win32,19-09-23,20:47:09,blue,red,443963,1.0
751,32,blue,yes,last-month,male,1697741248905,1272,31,id22_v2_b7_r6.jpg,22,6,7,2,1335,blue,Netscape,1280,720,Win32,19-09-23,20:47:09,blue,red,443963,1.0
752,32,red,yes,last-month,male,1697741248905,1272,32,id15_v1_b6_r8.jpg,15,8,6,1,1174,red,Netscape,1280,720,Win32,19-09-23,20:47:09,blue,red,443963,1.0
753,32,red,yes,last-month,male,1697741248905,1272,33,id10_v1_b6_r7.jpg,10,7,6,1,1074,red,Netscape,1280,720,Win32,19-09-23,20:47:09,blue,red,443963,1.0
754,32,blue,yes,last-month,male,1697741248905,1272,34,id17_v2_b5_r6.jpg,17,6,5,2,849,red,Netscape,1280,720,Win32,19-09-23,20:47:09,blue,red,443963,0.0
755,32,red,yes,last-month,male,1697741248905,1272,35,id5_v1_b6_r7.jpg,5,7,6,1,1585,red,Netscape,1280,720,Win32,19-09-23,20:47:09,blue,red,443963,1.0
756,32,red,yes,last-month,male,1697741248905,1272,36,id12_v2_b6_r7.jpg,12,7,6,2,2189,red,Netscape,1280,720,Win32,19-09-23,20:47:09,blue,red,443963,1.0
757,32,blue,yes,last-month,male,1697741248905,1272,37,id16_v1_b6_r7.jpg,16,7,6,1,1465,red,Netscape,1280,720,Win32,19-09-23,20:47:09,blue,red,443963,0.0
758,32,red,yes,last-month,male,1697741248905,1272,38,id7_v1_b6_r7.jpg,7,7,6,1,1609,red,Netscape,1280,720,Win32,19-09-23,20:47:09,blue,red,443963,1.0
759,32,blue,yes,last-month,male,1697741248905,1272,39,id26_v2_b6_r7.jpg,26,7,6,2,1618,red,Netscape,1280,720,Win32,19-09-23,20:47:09,blue,red,443963,0.0
760,32,blue,yes,last-month,male,1697741248905,1272,40,id8_v1_b6_r5.jpg,8,5,6,1,1027,blue,Netscape,1280,720,Win32,19-09-23,20:47:09,blue,red,443963,1.0
761,32,blue,yes,last-month,male,1697741248905,1272,41,id1_v1_b7_r5.jpg,1,5,7,1,2581,blue,Netscape,1280,720,Win32,19-09-23,20:47:09,blue,red,443963,1.0
762,32,blue,yes,last-month,male,1697741248905,1272,42,id24_v1_b7_r6.jpg,24,6,7,1,1936,blue,Netscape,1280,720,Win32,19-09-23,20:47:09,blue,red,443963,1.0
763,32,red,yes,last-month,male,1697741248905,1272,43,id27_v1_b7_r6.jpg,27,6,7,1,3697,blue,Netscape,1280,720,Win32,19-09-23,20:47:09,blue,red,443963,0.0
764,32,red,yes,last-month,male,1697741248905,1272,44,id28_v1_b6_r7.jpg,28,7,6,1,1718,red,Netscape,1280,720,Win32,19-09-23,20:47:09,blue,red,443963,1.0
765,32,red,yes,last-month,male,1697741248905,1272,45,id9_v2_b5_r7.jpg,9,7,5,2,1181,red,Netscape,1280,720,Win32,19-09-23,20:47:09,blue,red,443963,1.0
766,32,blue,yes,last-month,male,1697741248905,1272,46,id23_v2_b6_r5.jpg,23,5,6,2,1134,blue,Netscape,1280,720,Win32,19-09-23,20:47:09,blue,red,443963,1.0
767,32,red,yes,last-month,male,1697741248905,1272,47,id3_v1_b7_r6.jpg,3,6,7,1,965,blue,Netscape,1280,720,Win32,19-09-23,20:47:09,blue,red,443963,0.0
768,32,blue,yes,last-month,male,1697741248905,1272,48,id25_v1_b7_r6.jpg,25,6,7,1,914,blue,Netscape,1280,720,Win32,19-09-23,20:47:09,blue,red,443963,1.0
769,32,blue,yes,last-month,male,1697741248905,1272,49,id11_v2_b6_r5.jpg,11,5,6,2,1079,blue,Netscape,1280,720,Win32,19-09-23,20:47:09,blue,red,443963,1.0
770,32,red,yes,last-month,male,1697741248905,1272,50,id4_v1_b5_r6.jpg,4,6,5,1,1405,red,Netscape,1280,720,Win32,19-09-23,20:47:09,blue,red,443963,1.0
771,32,red,yes,last-month,male,1697741248905,1272,51,id6_v2_b5_r7.jpg,6,7,5,2,1027,red,Netscape,1280,720,Win32,19-09-23,20:47:09,blue,red,443963,1.0
772,32,red,yes,last-month,male,1697741248905,1272,52,id13_v1_b5_r6.jpg,13,6,5,1,1556,red,Netscape,1280,720,Win32,19-09-23,20:47:09,blue,red,443963,1.0
773,32,blue,yes,last-month,male,1697741248905,1272,53,id29_v1_b7_r6.jpg,29,6,7,1,950,blue,Netscape,1280,720,Win32,19-09-23,20:47:09,blue,red,443963,1.0
774,32,blue,yes,last-month,male,1697741248905,1272,54,id18_v1_b7_r5.jpg,18,5,7,1,1339,blue,Netscape,1280,720,Win32,19-09-23,20:47:09,blue,red,443963,1.0
775,32,blue,yes,last-month,male,1697741248905,1272,55,id19_v1_b6_r7.jpg,19,7,6,1,1969,red,Netscape,1280,720,Win32,19-09-23,20:47:09,blue,red,443963,0.0
776,32,red,yes,last-month,male,1697741248905,1272,56,id21_v2_b7_r6.jpg,21,6,7,2,1638,blue,Netscape,1280,720,Win32,19-09-23,20:47:09,blue,red,443963,0.0
777,32,blue,yes,last-month,male,1697741248905,1272,57,id14_v1_b7_r6.jpg,14,6,7,1,1471,blue,Netscape,1280,720,Win32,19-09-23,20:47:09,blue,red,443963,1.0
778,32,red,yes,last-month,male,1697741248905,1272,58,id30_v1_b7_r6.jpg,30,6,7,1,2536,blue,Netscape,1280,720,Win32,19-09-23,20:47:09,blue,red,443963,0.0
779,32,blue,yes,last-month,male,1697741248905,1272,59,id2_v1_b6_r5.jpg,2,5,6,1,867,blue,Netscape,1280,720,Win32,19-09-23,20:47:09,blue,red,443963,1.0
780,30,blue,yes,last-month,female,1697741589081,1272,0,id17_v1_b6_r5.jpg,17,5,6,1,1943,blue,Netscape,1280,720,Win32,19-09-23,21:04:05,red,red,443971,1.0
781,30,blue,yes,last-month,female,1697741589081,1272,1,id10_v2_b7_r6.jpg,10,6,7,2,813,blue,Netscape,1280,720,Win32,19-09-23,21:04:05,red,red,443971,1.0
782,30,red,yes,last-month,female,1697741589081,1272,2,id12_v1_b7_r6.jpg,12,6,7,1,1030,blue,Netscape,1280,720,Win32,19-09-23,21:04:05,red,red,443971,0.0
783,30,blue,yes,last-month,female,1697741589081,1272,3,id20_v1_b7_r6.jpg,20,6,7,1,2000,blue,Netscape,1280,720,Win32,19-09-23,21:04:05,red,red,443971,1.0
784,30,blue,yes,last-month,female,1697741589081,1272,4,id5_v2_b7_r6.jpg,5,6,7,2,1267,blue,Netscape,1280,720,Win32,19-09-23,21:04:05,red,red,443971,1.0
785,30,blue,yes,last-month,female,1697741589081,1272,5,id22_v1_b6_r7.jpg,22,7,6,1,588,red,Netscape,1280,720,Win32,19-09-23,21:04:05,red,red,443971,0.0
786,30,red,yes,last-month,female,1697741589081,1272,6,id8_v2_b5_r6.jpg,8,6,5,2,967,red,Netscape,1280,720,Win32,19-09-23,21:04:05,red,red,443971,1.0
787,30,blue,yes,last-month,female,1697741589081,1272,7,id7_v2_b7_r6.jpg,7,6,7,2,819,blue,Netscape,1280,720,Win32,19-09-23,21:04:05,red,red,443971,1.0
788,30,red,yes,last-month,female,1697741589081,1272,8,id1_v2_b5_r7.jpg,1,7,5,2,1069,red,Netscape,1280,720,Win32,19-09-23,21:04:05,red,red,443971,1.0
789,30,blue,yes,last-month,female,1697741589081,1272,9,id15_v2_b8_r6.jpg,15,6,8,2,645,blue,Netscape,1280,720,Win32,19-09-23,21:04:05,red,red,443971,1.0
790,30,red,yes,last-month,female,1697741589081,1272,10,id24_v2_b6_r7.jpg,24,7,6,2,981,red,Netscape,1280,720,Win32,19-09-23,21:04:05,red,red,443971,1.0
791,30,red,yes,last-month,female,1697741589081,1272,11,id26_v1_b7_r6.jpg,26,6,7,1,952,blue,Netscape,1280,720,Win32,19-09-23,21:04:05,red,red,443971,0.0
792,30,red,yes,last-month,female,1697741589081,1272,12,id27_v2_b6_r7.jpg,27,7,6,2,934,red,Netscape,1280,720,Win32,19-09-23,21:04:05,red,red,443971,1.0
793,30,blue,yes,last-month,female,1697741589081,1272,13,id16_v2_b7_r6.jpg,16,6,7,2,906,blue,Netscape,1280,720,Win32,19-09-23,21:04:05,red,red,443971,1.0
