age,response_side,impaired_vision,experience,gender,session_id,inner_width,trial_no,filename,scene_id,red_count,blue_count,version,response_time,expected_side,browser,screen_w,screen_h,os,exp_start_date,exp_start_time,favorite_team,favorite_color,subject_id
23,red,no,never,female,1697797568418,1512,0,id17_v1_b6_r5.jpg,17,5,6,1,2739,blue,Netscape,1512,982,MacIntel,20-09-23,12:26:00,other,other,444707
23,blue,no,never,female,1697797568418,1512,1,id10_v2_b7_r6.jpg,10,6,7,2,791,blue,Netscape,1512,982,MacIntel,20-09-23,12:26:00,other,other,444707
23,blue,no,never,female,1697797568418,1512,2,id12_v1_b7_r6.jpg,12,6,7,1,1010,blue,Netscape,1512,982,MacIntel,20-09-23,12:26:00,other,other,444707
23,blue,no,never,female,1697797568418,1512,3,id20_v1_b7_r6.jpg,20,6,7,1,1189,blue,Netscape,1512,982,MacIntel,20-09-23,12:26:00,other,other,444707
23,red,no,never,female,1697797568418,1512,4,id5_v2_b7_r6.jpg,5,6,7,2,927,blue,Netscape,1512,982,MacIntel,20-09-23,12:26:00,other,other,444707
23,red,no,never,female,1697797568418,1512,5,id22_v1_b6_r7.jpg,22,7,6,1,945,red,Netscape,1512,982,MacIntel,20-09-23,12:26:00,other,other,444707
23,red,no,never,female,1697797568418,1512,6,id8_v2_b5_r6.jpg,8,6,5,2,661,red,Netscape,1512,982,MacIntel,20-09-23,12:26:00,other,other,444707
23,blue,no,never,female,1697797568418,1512,7,id7_v2_b7_r6.jpg,7,6,7,2,962,blue,Netscape,1512,982,MacIntel,20-09-23,12:26:00,other,other,444707
23,red,no,never,female,1697797568418,1512,8,id1_v2_b5_r7.jpg,1,7,5,2,1286,red,Netscape,1512,982,MacIntel,20-09-23,12:26:00,other,other,444707
23,blue,no,never,female,1697797568418,1512,9,id15_v2_b8_r6.jpg,15,6,8,2,942,blue,Netscape,1512,982,MacIntel,20-09-23,12:26:00,other,other,444707
23,red,no,never,female,1697797568418,1512,10,id24_v2_b6_r7.jpg,24,7,6,2,1044,red,Netscape,1512,982,MacIntel,20-09-23,12:26:00,other,other,444707
23,blue,no,never,female,1697797568418,1512,11,id26_v1_b7_r6.jpg,26,6,7,1,770,blue,Netscape,1512,982,MacIntel,20-09-23,12:26:00,other,other,444707
23,blue,no,never,female,1697797568418,1512,12,id27_v2_b6_r7.jpg,27,7,6,2,720,red,Netscape,1512,982,MacIntel,20-09-23,12:26:00,other,other,444707
23,blue,no,never,female,1697797568418,1512,13,id16_v2_b7_r6.jpg,16,6,7,2,1027,blue,Netscape,1512,982,MacIntel,20-09-23,12:26:00,other,other,444707
23,blue,no,never,female,1697797568418,1512,14,id28_v2_b7_r6.jpg,28,6,7,2,727,blue,Netscape,1512,982,MacIntel,20-09-23,12:26:00,other,other,444707
23,blue,no,never,female,1697797568418,1512,15,id6_v1_b7_r5.jpg,6,5,7,1,678,blue,Netscape,1512,982,MacIntel,20-09-23,12:26:00,other,other,444707
23,blue,no,never,female,1697797568418,1512,16,id23_v1_b5_r6.jpg,23,6,5,1,696,red,Netscape,1512,982,MacIntel,20-09-23,12:26:00,other,other,444707
23,blue,no,never,female,1697797568418,1512,17,id19_v2_b7_r6.jpg,19,6,7,2,1043,blue,Netscape,1512,982,MacIntel,20-09-23,12:26:00,other,other,444707
23,blue,no,never,female,1697797568418,1512,18,id11_v1_b5_r6.jpg,11,6,5,1,1178,red,Netscape,1512,982,MacIntel,20-09-23,12:26:00,other,other,444707
23,red,no,never,female,1697797568418,1512,19,id21_v1_b6_r7.jpg,21,7,6,1,863,red,Netscape,1512,982,MacIntel,20-09-23,12:26:00,other,other,444707
23,red,no,never,female,1697797568418,1512,20,id18_v2_b5_r7.jpg,18,7,5,2,1112,red,Netscape,1512,982,MacIntel,20-09-23,12:26:00,other,other,444707
23,blue,no,never,female,1697797568418,1512,21,id13_v2_b6_r5.jpg,13,5,6,2,1115,blue,Netscape,1512,982,MacIntel,20-09-23,12:26:00,other,other,444707
23,red,no,never,female,1697797568418,1512,22,id30_v2_b6_r7.jpg,30,7,6,2,1114,red,Netscape,1512,982,MacIntel,20-09-23,12:26:00,other,other,444707
23,blue,no,never,female,1697797568418,1512,23,id4_v2_b6_r5.jpg,4,5,6,2,818,blue,Netscape,1512,982,MacIntel,20-09-23,12:26:00,other,other,444707
23,blue,no,never,female,1697797568418,1512,24,id29_v2_b6_r7.jpg,29,7,6,2,1043,red,Netscape,1512,982,MacIntel,20-09-23,12:26:00,other,other,444707
23,blue,no,never,female,1697797568418,1512,25,id14_v2_b6_r7.jpg,14,7,6,2,1003,red,Netscape,1512,982,MacIntel,20-09-23,12:26:00,other,other,444707
23,red,no,never,female,1697797568418,1512,26,id25_v2_b6_r7.jpg,25,7,6,2,711,red,Netscape,1512,982,MacIntel,20-09-23,12:26:00,other,other,444707
23,red,no,never,female,1697797568418,1512,27,id3_v2_b6_r7.jpg,3,7,6,2,903,red,Netscape,1512,982,MacIntel,20-09-23,12:26:00,other,other,444707
23,blue,no,never,female,1697797568418,1512,28,id9_v1_b7_r5.jpg,9,5,7,1,1050,blue,Netscape,1512,982,MacIntel,20-09-23,12:26:00,other,other,444707
23,red,no,never,female,1697797568418,1512,29,id2_v2_b5_r6.jpg,2,6,5,2,896,red,Netscape,1512,982,MacIntel,20-09-23,12:26:00,other,other,444707
23,red,no,never,female,1697797568418,1512,30,id20_v2_b6_r7.jpg,20,7,6,2,659,red,Netscape,1512,982,MacIntel,20-09-23,12:26:00,other,other,444707
23,blue,no,never,female,1697797568418,1512,31,id22_v2_b7_r6.jpg,22,6,7,2,759,blue,Netscape,1512,982,MacIntel,20-09-23,12:26:00,other,other,444707
23,blue,no,never,female,1697797568418,1512,32,id15_v1_b6_r8.jpg,15,8,6,1,547,red,Netscape,1512,982,MacIntel,20-09-23,12:26:00,other,other,444707
23,red,no,never,female,1697797568418,1512,33,id10_v1_b6_r7.jpg,10,7,6,1,1132,red,Netscape,1512,982,MacIntel,20-09-23,12:26:00,other,other,444707
23,blue,no,never,female,1697797568418,1512,34,id17_v2_b5_r6.jpg,17,6,5,2,665,red,Netscape,1512,982,MacIntel,20-09-23,12:26:00,other,other,444707
23,red,no,never,female,1697797568418,1512,35,id5_v1_b6_r7.jpg,5,7,6,1,742,red,Netscape,1512,982,MacIntel,20-09-23,12:26:00,other,other,444707
23,blue,no,never,female,1697797568418,1512,36,id12_v2_b6_r7.jpg,12,7,6,2,634,red,Netscape,1512,982,MacIntel,20-09-23,12:26:00,other,other,444707
23,blue,no,never,female,1697797568418,1512,37,id16_v1_b6_r7.jpg,16,7,6,1,734,red,Netscape,1512,982,MacIntel,20-09-23,12:26:00,other,other,444707
23,red,no,never,female,1697797568418,1512,38,id7_v1_b6_r7.jpg,7,7,6,1,678,red,Netscape,1512,982,MacIntel,20-09-23,12:26:00,other,other,444707
23,blue,no,never,female,1697797568418,1512,39,id26_v2_b6_r7.jpg,26,7,6,2,753,red,Netscape,1512,982,MacIntel,20-09-23,12:26:00,other,other,444707
23,red,no,never,female,1697797568418,1512,40,id8_v1_b6_r5.jpg,8,5,6,1,817,blue,Netscape,1512,982,MacIntel,20-09-23,12:26:00,other,other,444707
23,blue,no,never,female,1697797568418,1512,41,id1_v1_b7_r5.jpg,1,5,7,1,687,blue,Netscape,1512,982,MacIntel,20-09-23,12:26:00,other,other,444707
23,blue,no,never,female,1697797568418,1512,42,id24_v1_b7_r6.jpg,24,6,7,1,1912,blue,Netscape,1512,982,MacIntel,20-09-23,12:26:00,other,other,444707
23,blue,no,never,female,1697797568418,1512,43,id27_v1_b7_r6.jpg,27,6,7,1,570,blue,Netscape,1512,982,MacIntel,20-09-23,12:26:00,other,other,444707
23,red,no,never,female,1697797568418,1512,44,id28_v1_b6_r7.jpg,28,7,6,1,611,red,Netscape,1512,982,MacIntel,20-09-23,12:26:00,other,other,444707
23,red,no,never,female,1697797568418,1512,45,id9_v2_b5_r7.jpg,9,7,5,2,900,red,Netscape,1512,982,MacIntel,20-09-23,12:26:00,other,other,444707
23,blue,no,never,female,1697797568418,1512,46,id23_v2_b6_r5.jpg,23,5,6,2,683,blue,Netscape,1512,982,MacIntel,20-09-23,12:26:00,other,other,444707
23,blue,no,never,female,1697797568418,1512,47,id3_v1_b7_r6.jpg,3,6,7,1,622,blue,Netscape,1512,982,MacIntel,20-09-23,12:26:00,other,other,444707
23,blue,no,never,female,1697797568418,1512,48,id25_v1_b7_r6.jpg,25,6,7,1,617,blue,Netscape,1512,982,MacIntel,20-09-23,12:26:00,other,other,444707
23,blue,no,never,female,1697797568418,1512,49,id11_v2_b6_r5.jpg,11,5,6,2,666,blue,Netscape,1512,982,MacIntel,20-09-23,12:26:00,other,other,444707
23,blue,no,never,female,1697797568418,1512,50,id4_v1_b5_r6.jpg,4,6,5,1,835,red,Netscape,1512,982,MacIntel,20-09-23,12:26:00,other,other,444707
23,red,no,never,female,1697797568418,1512,51,id6_v2_b5_r7.jpg,6,7,5,2,654,red,Netscape,1512,982,MacIntel,20-09-23,12:26:00,other,other,444707
23,red,no,never,female,1697797568418,1512,52,id13_v1_b5_r6.jpg,13,6,5,1,946,red,Netscape,1512,982,MacIntel,20-09-23,12:26:00,other,other,444707
23,red,no,never,female,1697797568418,1512,53,id29_v1_b7_r6.jpg,29,6,7,1,1037,blue,Netscape,1512,982,MacIntel,20-09-23,12:26:00,other,other,444707
23,blue,no,never,female,1697797568418,1512,54,id18_v1_b7_r5.jpg,18,5,7,1,920,blue,Netscape,1512,982,MacIntel,20-09-23,12:26:00,other,other,444707
23,red,no,never,female,1697797568418,1512,55,id19_v1_b6_r7.jpg,19,7,6,1,1136,red,Netscape,1512,982,MacIntel,20-09-23,12:26:00,other,other,444707
23,blue,no,never,female,1697797568418,1512,56,id21_v2_b7_r6.jpg,21,6,7,2,910,blue,Netscape,1512,982,MacIntel,20-09-23,12:26:00,other,other,444707
23,blue,no,never,female,1697797568418,1512,57,id14_v1_b7_r6.jpg,14,6,7,1,737,blue,Netscape,1512,982,MacIntel,20-09-23,12:26:00,other,other,444707
23,red,no,never,female,1697797568418,1512,58,id30_v1_b7_r6.jpg,30,6,7,1,934,blue,Netscape,1512,982,MacIntel,20-09-23,12:26:00,other,other,444707
23,blue,no,never,female,1697797568418,1512,59,id2_v1_b6_r5.jpg,2,5,6,1,627,blue,Netscape,1512,982,MacIntel,20-09-23,12:26:00,other,other,444707
38,blue,no,more,male,1697622184937,2419,0,id17_v1_b6_r5.jpg,17,5,6,1,1085,blue,Netscape,2560,1440,Win32,18-09-23,11:42:55,red,other,442242
38,blue,no,more,male,1697622184937,2419,1,id10_v2_b7_r6.jpg,10,6,7,2,389,blue,Netscape,2560,1440,Win32,18-09-23,11:42:55,red,other,442242
38,red,no,more,male,1697622184937,2419,2,id12_v1_b7_r6.jpg,12,6,7,1,576,blue,Netscape,2560,1440,Win32,18-09-23,11:42:55,red,other,442242
38,red,no,more,male,1697622184937,2419,3,id20_v1_b7_r6.jpg,20,6,7,1,428,blue,Netscape,2560,1440,Win32,18-09-23,11:42:55,red,other,442242
38,blue,no,more,male,1697622184937,2419,4,id5_v2_b7_r6.jpg,5,6,7,2,744,blue,Netscape,2560,1440,Win32,18-09-23,11:42:55,red,other,442242
38,red,no,more,male,1697622184937,2419,5,id22_v1_b6_r7.jpg,22,7,6,1,429,red,Netscape,2560,1440,Win32,18-09-23,11:42:55,red,other,442242
38,red,no,more,male,1697622184937,2419,6,id8_v2_b5_r6.jpg,8,6,5,2,495,red,Netscape,2560,1440,Win32,18-09-23,11:42:55,red,other,442242
38,blue,no,more,male,1697622184937,2419,7,id7_v2_b7_r6.jpg,7,6,7,2,703,blue,Netscape,2560,1440,Win32,18-09-23,11:42:55,red,other,442242
38,red,no,more,male,1697622184937,2419,8,id1_v2_b5_r7.jpg,1,7,5,2,518,red,Netscape,2560,1440,Win32,18-09-23,11:42:55,red,other,442242
38,red,no,more,male,1697622184937,2419,9,id15_v2_b8_r6.jpg,15,6,8,2,1664,blue,Netscape,2560,1440,Win32,18-09-23,11:42:55,red,other,442242
38,blue,no,more,male,1697622184937,2419,10,id24_v2_b6_r7.jpg,24,7,6,2,914,red,Netscape,2560,1440,Win32,18-09-23,11:42:55,red,other,442242
38,blue,no,more,male,1697622184937,2419,11,id26_v1_b7_r6.jpg,26,6,7,1,712,blue,Netscape,2560,1440,Win32,18-09-23,11:42:55,red,other,442242
38,red,no,more,male,1697622184937,2419,12,id27_v2_b6_r7.jpg,27,7,6,2,376,red,Netscape,2560,1440,Win32,18-09-23,11:42:55,red,other,442242
38,red,no,more,male,1697622184937,2419,13,id16_v2_b7_r6.jpg,16,6,7,2,542,blue,Netscape,2560,1440,Win32,18-09-23,11:42:55,red,other,442242
38,blue,no,more,male,1697622184937,2419,14,id28_v2_b7_r6.jpg,28,6,7,2,643,blue,Netscape,2560,1440,Win32,18-09-23,11:42:55,red,other,442242
38,blue,no,more,male,1697622184937,2419,15,id6_v1_b7_r5.jpg,6,5,7,1,452,blue,Netscape,2560,1440,Win32,18-09-23,11:42:55,red,other,442242
38,blue,no,more,male,1697622184937,2419,16,id23_v1_b5_r6.jpg,23,6,5,1,1031,red,Netscape,2560,1440,Win32,18-09-23,11:42:55,red,other,442242
38,blue,no,more,male,1697622184937,2419,17,id19_v2_b7_r6.jpg,19,6,7,2,673,blue,Netscape,2560,1440,Win32,18-09-23,11:42:55,red,other,442242
38,red,no,more,male,1697622184937,2419,18,id11_v1_b5_r6.jpg,11,6,5,1,691,red,Netscape,2560,1440,Win32,18-09-23,11:42:55,red,other,442242
38,red,no,more,male,1697622184937,2419,19,id21_v1_b6_r7.jpg,21,7,6,1,1072,red,Netscape,2560,1440,Win32,18-09-23,11:42:55,red,other,442242
38,blue,no,more,male,1697622184937,2419,20,id18_v2_b5_r7.jpg,18,7,5,2,1983,red,Netscape,2560,1440,Win32,18-09-23,11:42:55,red,other,442242
38,red,no,more,male,1697622184937,2419,21,id13_v2_b6_r5.jpg,13,5,6,2,964,blue,Netscape,2560,1440,Win32,18-09-23,11:42:55,red,other,442242
38,red,no,more,male,1697622184937,2419,22,id30_v2_b6_r7.jpg,30,7,6,2,1202,red,Netscape,2560,1440,Win32,18-09-23,11:42:55,red,other,442242
38,blue,no,more,male,1697622184937,2419,23,id4_v2_b6_r5.jpg,4,5,6,2,494,blue,Netscape,2560,1440,Win32,18-09-23,11:42:55,red,other,442242
38,blue,no,more,male,1697622184937,2419,24,id29_v2_b6_r7.jpg,29,7,6,2,1079,red,Netscape,2560,1440,Win32,18-09-23,11:42:55,red,other,442242
38,blue,no,more,male,1697622184937,2419,25,id14_v2_b6_r7.jpg,14,7,6,2,592,red,Netscape,2560,1440,Win32,18-09-23,11:42:55,red,other,442242
38,red,no,more,male,1697622184937,2419,26,id25_v2_b6_r7.jpg,25,7,6,2,523,red,Netscape,2560,1440,Win32,18-09-23,11:42:55,red,other,442242
38,red,no,more,male,1697622184937,2419,27,id3_v2_b6_r7.jpg,3,7,6,2,650,red,Netscape,2560,1440,Win32,18-09-23,11:42:55,red,other,442242
38,blue,no,more,male,1697622184937,2419,28,id9_v1_b7_r5.jpg,9,5,7,1,585,blue,Netscape,2560,1440,Win32,18-09-23,11:42:55,red,other,442242
38,red,no,more,male,1697622184937,2419,29,id2_v2_b5_r6.jpg,2,6,5,2,681,red,Netscape,2560,1440,Win32,18-09-23,11:42:55,red,other,442242
38,blue,no,more,male,1697622184937,2419,30,id20_v2_b6_r7.jpg,20,7,6,2,472,red,Netscape,2560,1440,Win32,18-09-23,11:42:55,red,other,442242
38,blue,no,more,male,1697622184937,2419,31,id22_v2_b7_r6.jpg,22,6,7,2,624,blue,Netscape,2560,1440,Win32,18-09-23,11:42:55,red,other,442242
38,red,no,more,male,1697622184937,2419,32,id15_v1_b6_r8.jpg,15,8,6,1,586,red,Netscape,2560,1440,Win32,18-09-23,11:42:55,red,other,442242
38,red,no,more,male,1697622184937,2419,33,id10_v1_b6_r7.jpg,10,7,6,1,557,red,Netscape,2560,1440,Win32,18-09-23,11:42:55,red,other,442242
38,blue,no,more,male,1697622184937,2419,34,id17_v2_b5_r6.jpg,17,6,5,2,730,red,Netscape,2560,1440,Win32,18-09-23,11:42:55,red,other,442242
38,blue,no,more,male,1697622184937,2419,35,id5_v1_b6_r7.jpg,5,7,6,1,769,red,Netscape,2560,1440,Win32,18-09-23,11:42:55,red,other,442242
38,red,no,more,male,1697622184937,2419,36,id12_v2_b6_r7.jpg,12,7,6,2,509,red,Netscape,2560,1440,Win32,18-09-23,11:42:55,red,other,442242
38,red,no,more,male,1697622184937,2419,37,id16_v1_b6_r7.jpg,16,7,6,1,955,red,Netscape,2560,1440,Win32,18-09-23,11:42:55,red,other,442242
38,red,no,more,male,1697622184937,2419,38,id7_v1_b6_r7.jpg,7,7,6,1,520,red,Netscape,2560,1440,Win32,18-09-23,11:42:55,red,other,442242
38,blue,no,more,male,1697622184937,2419,39,id26_v2_b6_r7.jpg,26,7,6,2,814,red,Netscape,2560,1440,Win32,18-09-23,11:42:55,red,other,442242
38,blue,no,more,male,1697622184937,2419,40,id8_v1_b6_r5.jpg,8,5,6,1,778,blue,Netscape,2560,1440,Win32,18-09-23,11:42:55,red,other,442242
38,blue,no,more,male,1697622184937,2419,41,id1_v1_b7_r5.jpg,1,5,7,1,612,blue,Netscape,2560,1440,Win32,18-09-23,11:42:55,red,other,442242
38,blue,no,more,male,1697622184937,2419,42,id24_v1_b7_r6.jpg,24,6,7,1,734,blue,Netscape,2560,1440,Win32,18-09-23,11:42:55,red,other,442242
38,blue,no,more,male,1697622184937,2419,43,id27_v1_b7_r6.jpg,27,6,7,1,708,blue,Netscape,2560,1440,Win32,18-09-23,11:42:55,red,other,442242
38,red,no,more,male,1697622184937,2419,44,id28_v1_b6_r7.jpg,28,7,6,1,918,red,Netscape,2560,1440,Win32,18-09-23,11:42:55,red,other,442242
38,red,no,more,male,1697622184937,2419,45,id9_v2_b5_r7.jpg,9,7,5,2,772,red,Netscape,2560,1440,Win32,18-09-23,11:42:55,red,other,442242
38,blue,no,more,male,1697622184937,2419,46,id23_v2_b6_r5.jpg,23,5,6,2,1580,blue,Netscape,2560,1440,Win32,18-09-23,11:42:55,red,other,442242
38,blue,no,more,male,1697622184937,2419,47,id3_v1_b7_r6.jpg,3,6,7,1,970,blue,Netscape,2560,1440,Win32,18-09-23,11:42:55,red,other,442242
38,blue,no,more,male,1697622184937,2419,48,id25_v1_b7_r6.jpg,25,6,7,1,564,blue,Netscape,2560,1440,Win32,18-09-23,11:42:55,red,other,442242
38,blue,no,more,male,1697622184937,2419,49,id11_v2_b6_r5.jpg,11,5,6,2,1643,blue,Netscape,2560,1440,Win32,18-09-23,11:42:55,red,other,442242
38,red,no,more,male,1697622184937,2419,50,id4_v1_b5_r6.jpg,4,6,5,1,390,red,Netscape,2560,1440,Win32,18-09-23,11:42:55,red,other,442242
38,red,no,more,male,1697622184937,2419,51,id6_v2_b5_r7.jpg,6,7,5,2,456,red,Netscape,2560,1440,Win32,18-09-23,11:42:55,red,other,442242
38,red,no,more,male,1697622184937,2419,52,id13_v1_b5_r6.jpg,13,6,5,1,639,red,Netscape,2560,1440,Win32,18-09-23,11:42:55,red,other,442242
38,red,no,more,male,1697622184937,2419,53,id29_v1_b7_r6.jpg,29,6,7,1,1966,blue,Netscape,2560,1440,Win32,18-09-23,11:42:55,red,other,442242
38,blue,no,more,male,1697622184937,2419,54,id18_v1_b7_r5.jpg,18,5,7,1,578,blue,Netscape,2560,1440,Win32,18-09-23,11:42:55,red,other,442242
38,red,no,more,male,1697622184937,2419,55,id19_v1_b6_r7.jpg,19,7,6,1,1080,red,Netscape,2560,1440,Win32,18-09-23,11:42:55,red,other,442242
38,red,no,more,male,1697622184937,2419,56,id21_v2_b7_r6.jpg,21,6,7,2,1090,blue,Netscape,2560,1440,Win32,18-09-23,11:42:55,red,other,442242
38,blue,no,more,male,1697622184937,2419,57,id14_v1_b7_r6.jpg,14,6,7,1,450,blue,Netscape,2560,1440,Win32,18-09-23,11:42:55,red,other,442242
38,blue,no,more,male,1697622184937,2419,58,id30_v1_b7_r6.jpg,30,6,7,1,723,blue,Netscape,2560,1440,Win32,18-09-23,11:42:55,red,other,442242
38,blue,no,more,male,1697622184937,2419,59,id2_v1_b6_r5.jpg,2,5,6,1,810,blue,Netscape,2560,1440,Win32,18-09-23,11:42:55,red,other,442242
23,red,no,last-year,male,1697638495132,1512,0,id17_v1_b6_r5.jpg,17,5,6,1,981,blue,Netscape,1512,982,MacIntel,18-09-23,16:13:24,other,other,442451
23,blue,no,last-year,male,1697638495132,1512,1,id10_v2_b7_r6.jpg,10,6,7,2,736,blue,Netscape,1512,982,MacIntel,18-09-23,16:13:24,other,other,442451
23,blue,no,last-year,male,1697638495132,1512,2,id12_v1_b7_r6.jpg,12,6,7,1,696,blue,Netscape,1512,982,MacIntel,18-09-23,16:13:24,other,other,442451
23,blue,no,last-year,male,1697638495132,1512,3,id20_v1_b7_r6.jpg,20,6,7,1,60496,blue,Netscape,1512,982,MacIntel,18-09-23,16:13:24,other,other,442451
23,blue,no,last-year,male,1697638495132,1512,4,id5_v2_b7_r6.jpg,5,6,7,2,1666,blue,Netscape,1512,982,MacIntel,18-09-23,16:13:24,other,other,442451
23,red,no,last-year,male,1697638495132,1512,5,id22_v1_b6_r7.jpg,22,7,6,1,670,red,Netscape,1512,982,MacIntel,18-09-23,16:13:24,other,other,442451
23,red,no,last-year,male,1697638495132,1512,6,id8_v2_b5_r6.jpg,8,6,5,2,800,red,Netscape,1512,982,MacIntel,18-09-23,16:13:24,other,other,442451
23,red,no,last-year,male,1697638495132,1512,7,id7_v2_b7_r6.jpg,7,6,7,2,1549,blue,Netscape,1512,982,MacIntel,18-09-23,16:13:24,other,other,442451
23,red,no,last-year,male,1697638495132,1512,8,id1_v2_b5_r7.jpg,1,7,5,2,671,red,Netscape,1512,982,MacIntel,18-09-23,16:13:24,other,other,442451
23,blue,no,last-year,male,1697638495132,1512,9,id15_v2_b8_r6.jpg,15,6,8,2,954,blue,Netscape,1512,982,MacIntel,18-09-23,16:13:24,other,other,442451
23,red,no,last-year,male,1697638495132,1512,10,id24_v2_b6_r7.jpg,24,7,6,2,1280,red,Netscape,1512,982,MacIntel,18-09-23,16:13:24,other,other,442451
23,red,no,last-year,male,1697638495132,1512,11,id26_v1_b7_r6.jpg,26,6,7,1,1185,blue,Netscape,1512,982,MacIntel,18-09-23,16:13:24,other,other,442451
23,red,no,last-year,male,1697638495132,1512,12,id27_v2_b6_r7.jpg,27,7,6,2,797,red,Netscape,1512,982,MacIntel,18-09-23,16:13:24,other,other,442451
23,blue,no,last-year,male,1697638495132,1512,13,id16_v2_b7_r6.jpg,16,6,7,2,976,blue,Netscape,1512,982,MacIntel,18-09-23,16:13:24,other,other,442451
23,blue,no,last-year,male,1697638495132,1512,14,id28_v2_b7_r6.jpg,28,6,7,2,1030,blue,Netscape,1512,982,MacIntel,18-09-23,16:13:24,other,other,442451
23,blue,no,last-year,male,1697638495132,1512,15,id6_v1_b7_r5.jpg,6,5,7,1,688,blue,Netscape,1512,982,MacIntel,18-09-23,16:13:24,other,other,442451
23,blue,no,last-year,male,1697638495132,1512,16,id23_v1_b5_r6.jpg,23,6,5,1,15038,red,Netscape,1512,982,MacIntel,18-09-23,16:13:24,other,other,442451
23,blue,no,last-year,male,1697638495132,1512,17,id19_v2_b7_r6.jpg,19,6,7,2,622,blue,Netscape,1512,982,MacIntel,18-09-23,16:13:24,other,other,442451
23,blue,no,last-year,male,1697638495132,1512,18,id11_v1_b5_r6.jpg,11,6,5,1,1090,red,Netscape,1512,982,MacIntel,18-09-23,16:13:24,other,other,442451
23,blue,no,last-year,male,1697638495132,1512,19,id21_v1_b6_r7.jpg,21,7,6,1,698,red,Netscape,1512,982,MacIntel,18-09-23,16:13:24,other,other,442451
23,red,no,last-year,male,1697638495132,1512,20,id18_v2_b5_r7.jpg,18,7,5,2,1169,red,Netscape,1512,982,MacIntel,18-09-23,16:13:24,other,other,442451
23,blue,no,last-year,male,1697638495132,1512,21,id13_v2_b6_r5.jpg,13,5,6,2,1470,blue,Netscape,1512,982,MacIntel,18-09-23,16:13:24,other,other,442451
23,red,no,last-year,male,1697638495132,1512,22,id30_v2_b6_r7.jpg,30,7,6,2,1028,red,Netscape,1512,982,MacIntel,18-09-23,16:13:24,other,other,442451
23,blue,no,last-year,male,1697638495132,1512,23,id4_v2_b6_r5.jpg,4,5,6,2,1109,blue,Netscape,1512,982,MacIntel,18-09-23,16:13:24,other,other,442451
23,blue,no,last-year,male,1697638495132,1512,24,id29_v2_b6_r7.jpg,29,7,6,2,886,red,Netscape,1512,982,MacIntel,18-09-23,16:13:24,other,other,442451
23,red,no,last-year,male,1697638495132,1512,25,id14_v2_b6_r7.jpg,14,7,6,2,1176,red,Netscape,1512,982,MacIntel,18-09-23,16:13:24,other,other,442451
23,red,no,last-year,male,1697638495132,1512,26,id25_v2_b6_r7.jpg,25,7,6,2,1387,red,Netscape,1512,982,MacIntel,18-09-23,16:13:24,other,other,442451
23,blue,no,last-year,male,1697638495132,1512,27,id3_v2_b6_r7.jpg,3,7,6,2,49727,red,Netscape,1512,982,MacIntel,18-09-23,16:13:24,other,other,442451
23,blue,no,last-year,male,1697638495132,1512,28,id9_v1_b7_r5.jpg,9,5,7,1,802,blue,Netscape,1512,982,MacIntel,18-09-23,16:13:24,other,other,442451
23,red,no,last-year,male,1697638495132,1512,29,id2_v2_b5_r6.jpg,2,6,5,2,1100,red,Netscape,1512,982,MacIntel,18-09-23,16:13:24,other,other,442451
23,red,no,last-year,male,1697638495132,1512,30,id20_v2_b6_r7.jpg,20,7,6,2,3207,red,Netscape,1512,982,MacIntel,18-09-23,16:13:24,other,other,442451
23,blue,no,last-year,male,1697638495132,1512,31,id22_v2_b7_r6.jpg,22,6,7,2,1672,blue,Netscape,1512,982,MacIntel,18-09-23,16:13:24,other,other,442451
23,red,no,last-year,male,1697638495132,1512,32,id15_v1_b6_r8.jpg,15,8,6,1,1041,red,Netscape,1512,982,MacIntel,18-09-23,16:13:24,other,other,442451
23,red,no,last-year,male,1697638495132,1512,33,id10_v1_b6_r7.jpg,10,7,6,1,647,red,Netscape,1512,982,MacIntel,18-09-23,16:13:24,other,other,442451
23,red,no,last-year,male,1697638495132,1512,34,id17_v2_b5_r6.jpg,17,6,5,2,6543,red,Netscape,1512,982,MacIntel,18-09-23,16:13:24,other,other,442451
23,red,no,last-year,male,1697638495132,1512,35,id5_v1_b6_r7.jpg,5,7,6,1,689,red,Netscape,1512,982,MacIntel,18-09-23,16:13:24,other,other,442451
23,red,no,last-year,male,1697638495132,1512,36,id12_v2_b6_r7.jpg,12,7,6,2,456,red,Netscape,1512,982,MacIntel,18-09-23,16:13:24,other,other,442451
23,red,no,last-year,male,1697638495132,1512,37,id16_v1_b6_r7.jpg,16,7,6,1,964,red,Netscape,1512,982,MacIntel,18-09-23,16:13:24,other,other,442451
23,red,no,last-year,male,1697638495132,1512,38,id7_v1_b6_r7.jpg,7,7,6,1,2557,red,Netscape,1512,982,MacIntel,18-09-23,16:13:24,other,other,442451
23,blue,no,last-year,male,1697638495132,1512,39,id26_v2_b6_r7.jpg,26,7,6,2,789,red,Netscape,1512,982,MacIntel,18-09-23,16:13:24,other,other,442451
23,blue,no,last-year,male,1697638495132,1512,40,id8_v1_b6_r5.jpg,8,5,6,1,724,blue,Netscape,1512,982,MacIntel,18-09-23,16:13:24,other,other,442451
23,blue,no,last-year,male,1697638495132,1512,41,id1_v1_b7_r5.jpg,1,5,7,1,673,blue,Netscape,1512,982,MacIntel,18-09-23,16:13:24,other,other,442451
23,blue,no,last-year,male,1697638495132,1512,42,id24_v1_b7_r6.jpg,24,6,7,1,514,blue,Netscape,1512,982,MacIntel,18-09-23,16:13:24,other,other,442451
23,blue,no,last-year,male,1697638495132,1512,43,id27_v1_b7_r6.jpg,27,6,7,1,438,blue,Netscape,1512,982,MacIntel,18-09-23,16:13:24,other,other,442451
23,red,no,last-year,male,1697638495132,1512,44,id28_v1_b6_r7.jpg,28,7,6,1,873,red,Netscape,1512,982,MacIntel,18-09-23,16:13:24,other,other,442451
23,red,no,last-year,male,1697638495132,1512,45,id9_v2_b5_r7.jpg,9,7,5,2,691,red,Netscape,1512,982,MacIntel,18-09-23,16:13:24,other,other,442451
23,blue,no,last-year,male,1697638495132,1512,46,id23_v2_b6_r5.jpg,23,5,6,2,1198,blue,Netscape,1512,982,MacIntel,18-09-23,16:13:24,other,other,442451
23,red,no,last-year,male,1697638495132,1512,47,id3_v1_b7_r6.jpg,3,6,7,1,758,blue,Netscape,1512,982,MacIntel,18-09-23,16:13:24,other,other,442451
23,blue,no,last-year,male,1697638495132,1512,48,id25_v1_b7_r6.jpg,25,6,7,1,775,blue,Netscape,1512,982,MacIntel,18-09-23,16:13:24,other,other,442451
23,blue,no,last-year,male,1697638495132,1512,49,id11_v2_b6_r5.jpg,11,5,6,2,1740,blue,Netscape,1512,982,MacIntel,18-09-23,16:13:24,other,other,442451
23,red,no,last-year,male,1697638495132,1512,50,id4_v1_b5_r6.jpg,4,6,5,1,1056,red,Netscape,1512,982,MacIntel,18-09-23,16:13:24,other,other,442451
23,red,no,last-year,male,1697638495132,1512,51,id6_v2_b5_r7.jpg,6,7,5,2,749,red,Netscape,1512,982,MacIntel,18-09-23,16:13:24,other,other,442451
23,red,no,last-year,male,1697638495132,1512,52,id13_v1_b5_r6.jpg,13,6,5,1,684,red,Netscape,1512,982,MacIntel,18-09-23,16:13:24,other,other,442451
23,red,no,last-year,male,1697638495132,1512,53,id29_v1_b7_r6.jpg,29,6,7,1,479,blue,Netscape,1512,982,MacIntel,18-09-23,16:13:24,other,other,442451
23,blue,no,last-year,male,1697638495132,1512,54,id18_v1_b7_r5.jpg,18,5,7,1,773,blue,Netscape,1512,982,MacIntel,18-09-23,16:13:24,other,other,442451
23,red,no,last-year,male,1697638495132,1512,55,id19_v1_b6_r7.jpg,19,7,6,1,2099,red,Netscape,1512,982,MacIntel,18-09-23,16:13:24,other,other,442451
23,red,no,last-year,male,1697638495132,1512,56,id21_v2_b7_r6.jpg,21,6,7,2,519,blue,Netscape,1512,982,MacIntel,18-09-23,16:13:24,other,other,442451
23,blue,no,last-year,male,1697638495132,1512,57,id14_v1_b7_r6.jpg,14,6,7,1,877,blue,Netscape,1512,982,MacIntel,18-09-23,16:13:24,other,other,442451
23,blue,no,last-year,male,1697638495132,1512,58,id30_v1_b7_r6.jpg,30,6,7,1,953,blue,Netscape,1512,982,MacIntel,18-09-23,16:13:24,other,other,442451
23,blue,no,last-year,male,1697638495132,1512,59,id2_v1_b6_r5.jpg,2,5,6,1,5108,blue,Netscape,1512,982,MacIntel,18-09-23,16:13:24,other,other,442451
23,blue,no,last-year,male,1697640242308,1324,0,id17_v1_b6_r5.jpg,17,5,6,1,1697,blue,Netscape,1512,982,MacIntel,18-09-23,16:44:03,blue,blue,442482
23,blue,no,last-year,male,1697640242308,1324,1,id10_v2_b7_r6.jpg,10,6,7,2,1267,blue,Netscape,1512,982,MacIntel,18-09-23,16:44:03,blue,blue,442482
23,blue,no,last-year,male,1697640242308,1324,2,id12_v1_b7_r6.jpg,12,6,7,1,812,blue,Netscape,1512,982,MacIntel,18-09-23,16:44:03,blue,blue,442482
23,red,no,last-year,male,1697640242308,1324,3,id20_v1_b7_r6.jpg,20,6,7,1,1006,blue,Netscape,1512,982,MacIntel,18-09-23,16:44:03,blue,blue,442482
23,red,no,last-year,male,1697640242308,1324,4,id5_v2_b7_r6.jpg,5,6,7,2,718,blue,Netscape,1512,982,MacIntel,18-09-23,16:44:03,blue,blue,442482
23,red,no,last-year,male,1697640242308,1324,5,id22_v1_b6_r7.jpg,22,7,6,1,892,red,Netscape,1512,982,MacIntel,18-09-23,16:44:03,blue,blue,442482
23,red,no,last-year,male,1697640242308,1324,6,id8_v2_b5_r6.jpg,8,6,5,2,889,red,Netscape,1512,982,MacIntel,18-09-23,16:44:03,blue,blue,442482
23,blue,no,last-year,male,1697640242308,1324,7,id7_v2_b7_r6.jpg,7,6,7,2,1633,blue,Netscape,1512,982,MacIntel,18-09-23,16:44:03,blue,blue,442482
23,red,no,last-year,male,1697640242308,1324,8,id1_v2_b5_r7.jpg,1,7,5,2,835,red,Netscape,1512,982,MacIntel,18-09-23,16:44:03,blue,blue,442482
23,blue,no,last-year,male,1697640242308,1324,9,id15_v2_b8_r6.jpg,15,6,8,2,880,blue,Netscape,1512,982,MacIntel,18-09-23,16:44:03,blue,blue,442482
23,blue,no,last-year,male,1697640242308,1324,10,id24_v2_b6_r7.jpg,24,7,6,2,846,red,Netscape,1512,982,MacIntel,18-09-23,16:44:03,blue,blue,442482
23,blue,no,last-year,male,1697640242308,1324,11,id26_v1_b7_r6.jpg,26,6,7,1,799,blue,Netscape,1512,982,MacIntel,18-09-23,16:44:03,blue,blue,442482
23,blue,no,last-year,male,1697640242308,1324,12,id27_v2_b6_r7.jpg,27,7,6,2,690,red,Netscape,1512,982,MacIntel,18-09-23,16:44:03,blue,blue,442482
23,red,no,last-year,male,1697640242308,1324,13,id16_v2_b7_r6.jpg,16,6,7,2,1162,blue,Netscape,1512,982,MacIntel,18-09-23,16:44:03,blue,blue,442482
23,blue,no,last-year,male,1697640242308,1324,14,id28_v2_b7_r6.jpg,28,6,7,2,2138,blue,Netscape,1512,982,MacIntel,18-09-23,16:44:03,blue,blue,442482
23,blue,no,last-year,male,1697640242308,1324,15,id6_v1_b7_r5.jpg,6,5,7,1,881,blue,Netscape,1512,982,MacIntel,18-09-23,16:44:03,blue,blue,442482
23,red,no,last-year,male,1697640242308,1324,16,id23_v1_b5_r6.jpg,23,6,5,1,985,red,Netscape,1512,982,MacIntel,18-09-23,16:44:03,blue,blue,442482
23,blue,no,last-year,male,1697640242308,1324,17,id19_v2_b7_r6.jpg,19,6,7,2,829,blue,Netscape,1512,982,MacIntel,18-09-23,16:44:03,blue,blue,442482
23,red,no,last-year,male,1697640242308,1324,18,id11_v1_b5_r6.jpg,11,6,5,1,844,red,Netscape,1512,982,MacIntel,18-09-23,16:44:03,blue,blue,442482
23,blue,no,last-year,male,1697640242308,1324,19,id21_v1_b6_r7.jpg,21,7,6,1,804,red,Netscape,1512,982,MacIntel,18-09-23,16:44:03,blue,blue,442482
23,red,no,last-year,male,1697640242308,1324,20,id18_v2_b5_r7.jpg,18,7,5,2,909,red,Netscape,1512,982,MacIntel,18-09-23,16:44:03,blue,blue,442482
23,blue,no,last-year,male,1697640242308,1324,21,id13_v2_b6_r5.jpg,13,5,6,2,1001,blue,Netscape,1512,982,MacIntel,18-09-23,16:44:03,blue,blue,442482
23,red,no,last-year,male,1697640242308,1324,22,id30_v2_b6_r7.jpg,30,7,6,2,779,red,Netscape,1512,982,MacIntel,18-09-23,16:44:03,blue,blue,442482
23,blue,no,last-year,male,1697640242308,1324,23,id4_v2_b6_r5.jpg,4,5,6,2,710,blue,Netscape,1512,982,MacIntel,18-09-23,16:44:03,blue,blue,442482
23,blue,no,last-year,male,1697640242308,1324,24,id29_v2_b6_r7.jpg,29,7,6,2,547,red,Netscape,1512,982,MacIntel,18-09-23,16:44:03,blue,blue,442482
23,red,no,last-year,male,1697640242308,1324,25,id14_v2_b6_r7.jpg,14,7,6,2,937,red,Netscape,1512,982,MacIntel,18-09-23,16:44:03,blue,blue,442482
23,red,no,last-year,male,1697640242308,1324,26,id25_v2_b6_r7.jpg,25,7,6,2,1058,red,Netscape,1512,982,MacIntel,18-09-23,16:44:03,blue,blue,442482
23,red,no,last-year,male,1697640242308,1324,27,id3_v2_b6_r7.jpg,3,7,6,2,642,red,Netscape,1512,982,MacIntel,18-09-23,16:44:03,blue,blue,442482
23,blue,no,last-year,male,1697640242308,1324,28,id9_v1_b7_r5.jpg,9,5,7,1,997,blue,Netscape,1512,982,MacIntel,18-09-23,16:44:03,blue,blue,442482
23,red,no,last-year,male,1697640242308,1324,29,id2_v2_b5_r6.jpg,2,6,5,2,754,red,Netscape,1512,982,MacIntel,18-09-23,16:44:03,blue,blue,442482
23,red,no,last-year,male,1697640242308,1324,30,id20_v2_b6_r7.jpg,20,7,6,2,1000,red,Netscape,1512,982,MacIntel,18-09-23,16:44:03,blue,blue,442482
23,blue,no,last-year,male,1697640242308,1324,31,id22_v2_b7_r6.jpg,22,6,7,2,692,blue,Netscape,1512,982,MacIntel,18-09-23,16:44:03,blue,blue,442482
23,red,no,last-year,male,1697640242308,1324,32,id15_v1_b6_r8.jpg,15,8,6,1,795,red,Netscape,1512,982,MacIntel,18-09-23,16:44:03,blue,blue,442482
23,red,no,last-year,male,1697640242308,1324,33,id10_v1_b6_r7.jpg,10,7,6,1,713,red,Netscape,1512,982,MacIntel,18-09-23,16:44:03,blue,blue,442482
23,blue,no,last-year,male,1697640242308,1324,34,id17_v2_b5_r6.jpg,17,6,5,2,1054,red,Netscape,1512,982,MacIntel,18-09-23,16:44:03,blue,blue,442482
23,red,no,last-year,male,1697640242308,1324,35,id5_v1_b6_r7.jpg,5,7,6,1,818,red,Netscape,1512,982,MacIntel,18-09-23,16:44:03,blue,blue,442482
23,red,no,last-year,male,1697640242308,1324,36,id12_v2_b6_r7.jpg,12,7,6,2,666,red,Netscape,1512,982,MacIntel,18-09-23,16:44:03,blue,blue,442482
23,blue,no,last-year,male,1697640242308,1324,37,id16_v1_b6_r7.jpg,16,7,6,1,4463,red,Netscape,1512,982,MacIntel,18-09-23,16:44:03,blue,blue,442482
23,blue,no,last-year,male,1697640242308,1324,38,id7_v1_b6_r7.jpg,7,7,6,1,815,red,Netscape,1512,982,MacIntel,18-09-23,16:44:03,blue,blue,442482
23,red,no,last-year,male,1697640242308,1324,39,id26_v2_b6_r7.jpg,26,7,6,2,675,red,Netscape,1512,982,MacIntel,18-09-23,16:44:03,blue,blue,442482
23,blue,no,last-year,male,1697640242308,1324,40,id8_v1_b6_r5.jpg,8,5,6,1,898,blue,Netscape,1512,982,MacIntel,18-09-23,16:44:03,blue,blue,442482
23,blue,no,last-year,male,1697640242308,1324,41,id1_v1_b7_r5.jpg,1,5,7,1,672,blue,Netscape,1512,982,MacIntel,18-09-23,16:44:03,blue,blue,442482
23,blue,no,last-year,male,1697640242308,1324,42,id24_v1_b7_r6.jpg,24,6,7,1,1039,blue,Netscape,1512,982,MacIntel,18-09-23,16:44:03,blue,blue,442482
23,blue,no,last-year,male,1697640242308,1324,43,id27_v1_b7_r6.jpg,27,6,7,1,870,blue,Netscape,1512,982,MacIntel,18-09-23,16:44:03,blue,blue,442482
23,red,no,last-year,male,1697640242308,1324,44,id28_v1_b6_r7.jpg,28,7,6,1,879,red,Netscape,1512,982,MacIntel,18-09-23,16:44:03,blue,blue,442482
23,blue,no,last-year,male,1697640242308,1324,45,id9_v2_b5_r7.jpg,9,7,5,2,864,red,Netscape,1512,982,MacIntel,18-09-23,16:44:03,blue,blue,442482
23,red,no,last-year,male,1697640242308,1324,46,id23_v2_b6_r5.jpg,23,5,6,2,674,blue,Netscape,1512,982,MacIntel,18-09-23,16:44:03,blue,blue,442482
23,blue,no,last-year,male,1697640242308,1324,47,id3_v1_b7_r6.jpg,3,6,7,1,1014,blue,Netscape,1512,982,MacIntel,18-09-23,16:44:03,blue,blue,442482
23,blue,no,last-year,male,1697640242308,1324,48,id25_v1_b7_r6.jpg,25,6,7,1,1540,blue,Netscape,1512,982,MacIntel,18-09-23,16:44:03,blue,blue,442482
23,blue,no,last-year,male,1697640242308,1324,49,id11_v2_b6_r5.jpg,11,5,6,2,1210,blue,Netscape,1512,982,MacIntel,18-09-23,16:44:03,blue,blue,442482
23,red,no,last-year,male,1697640242308,1324,50,id4_v1_b5_r6.jpg,4,6,5,1,672,red,Netscape,1512,982,MacIntel,18-09-23,16:44:03,blue,blue,442482
23,red,no,last-year,male,1697640242308,1324,51,id6_v2_b5_r7.jpg,6,7,5,2,624,red,Netscape,1512,982,MacIntel,18-09-23,16:44:03,blue,blue,442482
23,blue,no,last-year,male,1697640242308,1324,52,id13_v1_b5_r6.jpg,13,6,5,1,866,red,Netscape,1512,982,MacIntel,18-09-23,16:44:03,blue,blue,442482
23,red,no,last-year,male,1697640242308,1324,53,id29_v1_b7_r6.jpg,29,6,7,1,757,blue,Netscape,1512,982,MacIntel,18-09-23,16:44:03,blue,blue,442482
23,blue,no,last-year,male,1697640242308,1324,54,id18_v1_b7_r5.jpg,18,5,7,1,859,blue,Netscape,1512,982,MacIntel,18-09-23,16:44:03,blue,blue,442482
23,red,no,last-year,male,1697640242308,1324,55,id19_v1_b6_r7.jpg,19,7,6,1,678,red,Netscape,1512,982,MacIntel,18-09-23,16:44:03,blue,blue,442482
23,blue,no,last-year,male,1697640242308,1324,56,id21_v2_b7_r6.jpg,21,6,7,2,1255,blue,Netscape,1512,982,MacIntel,18-09-23,16:44:03,blue,blue,442482
23,red,no,last-year,male,1697640242308,1324,57,id14_v1_b7_r6.jpg,14,6,7,1,756,blue,Netscape,1512,982,MacIntel,18-09-23,16:44:03,blue,blue,442482
23,blue,no,last-year,male,1697640242308,1324,58,id30_v1_b7_r6.jpg,30,6,7,1,923,blue,Netscape,1512,982,MacIntel,18-09-23,16:44:03,blue,blue,442482
23,blue,no,last-year,male,1697640242308,1324,59,id2_v1_b6_r5.jpg,2,5,6,1,721,blue,Netscape,1512,982,MacIntel,18-09-23,16:44:03,blue,blue,442482
22,blue,no,last-month,male,1697640313337,1440,0,id17_v1_b6_r5.jpg,17,5,6,1,1554,blue,Netscape,1440,900,MacIntel,18-09-23,16:44:09,blue,other,442483
22,blue,no,last-month,male,1697640313337,1440,1,id10_v2_b7_r6.jpg,10,6,7,2,1035,blue,Netscape,1440,900,MacIntel,18-09-23,16:44:09,blue,other,442483
22,blue,no,last-month,male,1697640313337,1440,2,id12_v1_b7_r6.jpg,12,6,7,1,851,blue,Netscape,1440,900,MacIntel,18-09-23,16:44:09,blue,other,442483
22,red,no,last-month,male,1697640313337,1440,3,id20_v1_b7_r6.jpg,20,6,7,1,1002,blue,Netscape,1440,900,MacIntel,18-09-23,16:44:09,blue,other,442483
22,blue,no,last-month,male,1697640313337,1440,4,id5_v2_b7_r6.jpg,5,6,7,2,870,blue,Netscape,1440,900,MacIntel,18-09-23,16:44:09,blue,other,442483
22,red,no,last-month,male,1697640313337,1440,5,id22_v1_b6_r7.jpg,22,7,6,1,584,red,Netscape,1440,900,MacIntel,18-09-23,16:44:09,blue,other,442483
22,red,no,last-month,male,1697640313337,1440,6,id8_v2_b5_r6.jpg,8,6,5,2,618,red,Netscape,1440,900,MacIntel,18-09-23,16:44:09,blue,other,442483
22,blue,no,last-month,male,1697640313337,1440,7,id7_v2_b7_r6.jpg,7,6,7,2,1501,blue,Netscape,1440,900,MacIntel,18-09-23,16:44:09,blue,other,442483
22,red,no,last-month,male,1697640313337,1440,8,id1_v2_b5_r7.jpg,1,7,5,2,784,red,Netscape,1440,900,MacIntel,18-09-23,16:44:09,blue,other,442483
22,blue,no,last-month,male,1697640313337,1440,9,id15_v2_b8_r6.jpg,15,6,8,2,2734,blue,Netscape,1440,900,MacIntel,18-09-23,16:44:09,blue,other,442483
22,red,no,last-month,male,1697640313337,1440,10,id24_v2_b6_r7.jpg,24,7,6,2,1351,red,Netscape,1440,900,MacIntel,18-09-23,16:44:09,blue,other,442483
22,blue,no,last-month,male,1697640313337,1440,11,id26_v1_b7_r6.jpg,26,6,7,1,987,blue,Netscape,1440,900,MacIntel,18-09-23,16:44:09,blue,other,442483
22,red,no,last-month,male,1697640313337,1440,12,id27_v2_b6_r7.jpg,27,7,6,2,1068,red,Netscape,1440,900,MacIntel,18-09-23,16:44:09,blue,other,442483
22,red,no,last-month,male,1697640313337,1440,13,id16_v2_b7_r6.jpg,16,6,7,2,1802,blue,Netscape,1440,900,MacIntel,18-09-23,16:44:09,blue,other,442483
22,blue,no,last-month,male,1697640313337,1440,14,id28_v2_b7_r6.jpg,28,6,7,2,718,blue,Netscape,1440,900,MacIntel,18-09-23,16:44:09,blue,other,442483
22,blue,no,last-month,male,1697640313337,1440,15,id6_v1_b7_r5.jpg,6,5,7,1,786,blue,Netscape,1440,900,MacIntel,18-09-23,16:44:09,blue,other,442483
22,blue,no,last-month,male,1697640313337,1440,16,id23_v1_b5_r6.jpg,23,6,5,1,1154,red,Netscape,1440,900,MacIntel,18-09-23,16:44:09,blue,other,442483
22,blue,no,last-month,male,1697640313337,1440,17,id19_v2_b7_r6.jpg,19,6,7,2,3654,blue,Netscape,1440,900,MacIntel,18-09-23,16:44:09,blue,other,442483
22,red,no,last-month,male,1697640313337,1440,18,id11_v1_b5_r6.jpg,11,6,5,1,718,red,Netscape,1440,900,MacIntel,18-09-23,16:44:09,blue,other,442483
22,blue,no,last-month,male,1697640313337,1440,19,id21_v1_b6_r7.jpg,21,7,6,1,2368,red,Netscape,1440,900,MacIntel,18-09-23,16:44:09,blue,other,442483
22,red,no,last-month,male,1697640313337,1440,20,id18_v2_b5_r7.jpg,18,7,5,2,1202,red,Netscape,1440,900,MacIntel,18-09-23,16:44:09,blue,other,442483
22,red,no,last-month,male,1697640313337,1440,21,id13_v2_b6_r5.jpg,13,5,6,2,1487,blue,Netscape,1440,900,MacIntel,18-09-23,16:44:09,blue,other,442483
22,red,no,last-month,male,1697640313337,1440,22,id30_v2_b6_r7.jpg,30,7,6,2,1252,red,Netscape,1440,900,MacIntel,18-09-23,16:44:09,blue,other,442483
22,blue,no,last-month,male,1697640313337,1440,23,id4_v2_b6_r5.jpg,4,5,6,2,570,blue,Netscape,1440,900,MacIntel,18-09-23,16:44:09,blue,other,442483
22,blue,no,last-month,male,1697640313337,1440,24,id29_v2_b6_r7.jpg,29,7,6,2,1669,red,Netscape,1440,900,MacIntel,18-09-23,16:44:09,blue,other,442483
22,red,no,last-month,male,1697640313337,1440,25,id14_v2_b6_r7.jpg,14,7,6,2,1971,red,Netscape,1440,900,MacIntel,18-09-23,16:44:09,blue,other,442483
22,red,no,last-month,male,1697640313337,1440,26,id25_v2_b6_r7.jpg,25,7,6,2,1855,red,Netscape,1440,900,MacIntel,18-09-23,16:44:09,blue,other,442483
22,red,no,last-month,male,1697640313337,1440,27,id3_v2_b6_r7.jpg,3,7,6,2,851,red,Netscape,1440,900,MacIntel,18-09-23,16:44:09,blue,other,442483
22,blue,no,last-month,male,1697640313337,1440,28,id9_v1_b7_r5.jpg,9,5,7,1,786,blue,Netscape,1440,900,MacIntel,18-09-23,16:44:09,blue,other,442483
22,red,no,last-month,male,1697640313337,1440,29,id2_v2_b5_r6.jpg,2,6,5,2,752,red,Netscape,1440,900,MacIntel,18-09-23,16:44:09,blue,other,442483
22,blue,no,last-month,male,1697640313337,1440,30,id20_v2_b6_r7.jpg,20,7,6,2,951,red,Netscape,1440,900,MacIntel,18-09-23,16:44:09,blue,other,442483
22,blue,no,last-month,male,1697640313337,1440,31,id22_v2_b7_r6.jpg,22,6,7,2,485,blue,Netscape,1440,900,MacIntel,18-09-23,16:44:09,blue,other,442483
22,blue,no,last-month,male,1697640313337,1440,32,id15_v1_b6_r8.jpg,15,8,6,1,782,red,Netscape,1440,900,MacIntel,18-09-23,16:44:09,blue,other,442483
22,red,no,last-month,male,1697640313337,1440,33,id10_v1_b6_r7.jpg,10,7,6,1,1334,red,Netscape,1440,900,MacIntel,18-09-23,16:44:09,blue,other,442483
22,blue,no,last-month,male,1697640313337,1440,34,id17_v2_b5_r6.jpg,17,6,5,2,505,red,Netscape,1440,900,MacIntel,18-09-23,16:44:09,blue,other,442483
22,blue,no,last-month,male,1697640313337,1440,35,id5_v1_b6_r7.jpg,5,7,6,1,483,red,Netscape,1440,900,MacIntel,18-09-23,16:44:09,blue,other,442483
22,red,no,last-month,male,1697640313337,1440,36,id12_v2_b6_r7.jpg,12,7,6,2,486,red,Netscape,1440,900,MacIntel,18-09-23,16:44:09,blue,other,442483
22,blue,no,last-month,male,1697640313337,1440,37,id16_v1_b6_r7.jpg,16,7,6,1,1519,red,Netscape,1440,900,MacIntel,18-09-23,16:44:09,blue,other,442483
22,red,no,last-month,male,1697640313337,1440,38,id7_v1_b6_r7.jpg,7,7,6,1,652,red,Netscape,1440,900,MacIntel,18-09-23,16:44:09,blue,other,442483
22,red,no,last-month,male,1697640313337,1440,39,id26_v2_b6_r7.jpg,26,7,6,2,804,red,Netscape,1440,900,MacIntel,18-09-23,16:44:09,blue,other,442483
22,blue,no,last-month,male,1697640313337,1440,40,id8_v1_b6_r5.jpg,8,5,6,1,903,blue,Netscape,1440,900,MacIntel,18-09-23,16:44:09,blue,other,442483
22,blue,no,last-month,male,1697640313337,1440,41,id1_v1_b7_r5.jpg,1,5,7,1,536,blue,Netscape,1440,900,MacIntel,18-09-23,16:44:09,blue,other,442483
22,blue,no,last-month,male,1697640313337,1440,42,id24_v1_b7_r6.jpg,24,6,7,1,604,blue,Netscape,1440,900,MacIntel,18-09-23,16:44:09,blue,other,442483
22,red,no,last-month,male,1697640313337,1440,43,id27_v1_b7_r6.jpg,27,6,7,1,822,blue,Netscape,1440,900,MacIntel,18-09-23,16:44:09,blue,other,442483
22,red,no,last-month,male,1697640313337,1440,44,id28_v1_b6_r7.jpg,28,7,6,1,787,red,Netscape,1440,900,MacIntel,18-09-23,16:44:09,blue,other,442483
22,red,no,last-month,male,1697640313337,1440,45,id9_v2_b5_r7.jpg,9,7,5,2,920,red,Netscape,1440,900,MacIntel,18-09-23,16:44:09,blue,other,442483
22,blue,no,last-month,male,1697640313337,1440,46,id23_v2_b6_r5.jpg,23,5,6,2,885,blue,Netscape,1440,900,MacIntel,18-09-23,16:44:09,blue,other,442483
22,blue,no,last-month,male,1697640313337,1440,47,id3_v1_b7_r6.jpg,3,6,7,1,1436,blue,Netscape,1440,900,MacIntel,18-09-23,16:44:09,blue,other,442483
22,blue,no,last-month,male,1697640313337,1440,48,id25_v1_b7_r6.jpg,25,6,7,1,734,blue,Netscape,1440,900,MacIntel,18-09-23,16:44:09,blue,other,442483
22,blue,no,last-month,male,1697640313337,1440,49,id11_v2_b6_r5.jpg,11,5,6,2,1021,blue,Netscape,1440,900,MacIntel,18-09-23,16:44:09,blue,other,442483
22,red,no,last-month,male,1697640313337,1440,50,id4_v1_b5_r6.jpg,4,6,5,1,951,red,Netscape,1440,900,MacIntel,18-09-23,16:44:09,blue,other,442483
22,red,no,last-month,male,1697640313337,1440,51,id6_v2_b5_r7.jpg,6,7,5,2,685,red,Netscape,1440,900,MacIntel,18-09-23,16:44:09,blue,other,442483
22,red,no,last-month,male,1697640313337,1440,52,id13_v1_b5_r6.jpg,13,6,5,1,1586,red,Netscape,1440,900,MacIntel,18-09-23,16:44:09,blue,other,442483
22,blue,no,last-month,male,1697640313337,1440,53,id29_v1_b7_r6.jpg,29,6,7,1,801,blue,Netscape,1440,900,MacIntel,18-09-23,16:44:09,blue,other,442483
22,red,no,last-month,male,1697640313337,1440,54,id18_v1_b7_r5.jpg,18,5,7,1,1384,blue,Netscape,1440,900,MacIntel,18-09-23,16:44:09,blue,other,442483
22,blue,no,last-month,male,1697640313337,1440,55,id19_v1_b6_r7.jpg,19,7,6,1,1386,red,Netscape,1440,900,MacIntel,18-09-23,16:44:09,blue,other,442483
22,red,no,last-month,male,1697640313337,1440,56,id21_v2_b7_r6.jpg,21,6,7,2,971,blue,Netscape,1440,900,MacIntel,18-09-23,16:44:09,blue,other,442483
22,red,no,last-month,male,1697640313337,1440,57,id14_v1_b7_r6.jpg,14,6,7,1,1603,blue,Netscape,1440,900,MacIntel,18-09-23,16:44:09,blue,other,442483
22,blue,no,last-month,male,1697640313337,1440,58,id30_v1_b7_r6.jpg,30,6,7,1,1353,blue,Netscape,1440,900,MacIntel,18-09-23,16:44:09,blue,other,442483
22,blue,no,last-month,male,1697640313337,1440,59,id2_v1_b6_r5.jpg,2,5,6,1,535,blue,Netscape,1440,900,MacIntel,18-09-23,16:44:09,blue,other,442483
32,blue,no,last-month,male,1697650489533,1920,0,id17_v1_b6_r5.jpg,17,5,6,1,1529,blue,Netscape,1920,1080,Win32,18-09-23,18:33:49,other,other,442636
32,blue,no,last-month,male,1697650489533,1920,1,id10_v2_b7_r6.jpg,10,6,7,2,1105,blue,Netscape,1920,1080,Win32,18-09-23,18:33:49,other,other,442636
32,blue,no,last-month,male,1697650489533,1920,2,id12_v1_b7_r6.jpg,12,6,7,1,2102,blue,Netscape,1920,1080,Win32,18-09-23,18:33:49,other,other,442636
32,red,no,last-month,male,1697650489533,1920,3,id20_v1_b7_r6.jpg,20,6,7,1,894,blue,Netscape,1920,1080,Win32,18-09-23,18:33:49,other,other,442636
32,red,no,last-month,male,1697650489533,1920,4,id5_v2_b7_r6.jpg,5,6,7,2,852,blue,Netscape,1920,1080,Win32,18-09-23,18:33:49,other,other,442636
32,blue,no,last-month,male,1697650489533,1920,5,id22_v1_b6_r7.jpg,22,7,6,1,926,red,Netscape,1920,1080,Win32,18-09-23,18:33:49,other,other,442636
32,red,no,last-month,male,1697650489533,1920,6,id8_v2_b5_r6.jpg,8,6,5,2,814,red,Netscape,1920,1080,Win32,18-09-23,18:33:49,other,other,442636
32,blue,no,last-month,male,1697650489533,1920,7,id7_v2_b7_r6.jpg,7,6,7,2,927,blue,Netscape,1920,1080,Win32,18-09-23,18:33:49,other,other,442636
32,red,no,last-month,male,1697650489533,1920,8,id1_v2_b5_r7.jpg,1,7,5,2,710,red,Netscape,1920,1080,Win32,18-09-23,18:33:49,other,other,442636
32,blue,no,last-month,male,1697650489533,1920,9,id15_v2_b8_r6.jpg,15,6,8,2,811,blue,Netscape,1920,1080,Win32,18-09-23,18:33:49,other,other,442636
32,blue,no,last-month,male,1697650489533,1920,10,id24_v2_b6_r7.jpg,24,7,6,2,606,red,Netscape,1920,1080,Win32,18-09-23,18:33:49,other,other,442636
32,blue,no,last-month,male,1697650489533,1920,11,id26_v1_b7_r6.jpg,26,6,7,1,1465,blue,Netscape,1920,1080,Win32,18-09-23,18:33:49,other,other,442636
32,red,no,last-month,male,1697650489533,1920,12,id27_v2_b6_r7.jpg,27,7,6,2,817,red,Netscape,1920,1080,Win32,18-09-23,18:33:49,other,other,442636
32,blue,no,last-month,male,1697650489533,1920,13,id16_v2_b7_r6.jpg,16,6,7,2,883,blue,Netscape,1920,1080,Win32,18-09-23,18:33:49,other,other,442636
32,blue,no,last-month,male,1697650489533,1920,14,id28_v2_b7_r6.jpg,28,6,7,2,844,blue,Netscape,1920,1080,Win32,18-09-23,18:33:49,other,other,442636
32,red,no,last-month,male,1697650489533,1920,15,id6_v1_b7_r5.jpg,6,5,7,1,861,blue,Netscape,1920,1080,Win32,18-09-23,18:33:49,other,other,442636
32,red,no,last-month,male,1697650489533,1920,16,id23_v1_b5_r6.jpg,23,6,5,1,837,red,Netscape,1920,1080,Win32,18-09-23,18:33:49,other,other,442636
32,blue,no,last-month,male,1697650489533,1920,17,id19_v2_b7_r6.jpg,19,6,7,2,1704,blue,Netscape,1920,1080,Win32,18-09-23,18:33:49,other,other,442636
32,blue,no,last-month,male,1697650489533,1920,18,id11_v1_b5_r6.jpg,11,6,5,1,1535,red,Netscape,1920,1080,Win32,18-09-23,18:33:49,other,other,442636
32,red,no,last-month,male,1697650489533,1920,19,id21_v1_b6_r7.jpg,21,7,6,1,860,red,Netscape,1920,1080,Win32,18-09-23,18:33:49,other,other,442636
32,blue,no,last-month,male,1697650489533,1920,20,id18_v2_b5_r7.jpg,18,7,5,2,917,red,Netscape,1920,1080,Win32,18-09-23,18:33:49,other,other,442636
32,red,no,last-month,male,1697650489533,1920,21,id13_v2_b6_r5.jpg,13,5,6,2,748,blue,Netscape,1920,1080,Win32,18-09-23,18:33:49,other,other,442636
32,red,no,last-month,male,1697650489533,1920,22,id30_v2_b6_r7.jpg,30,7,6,2,762,red,Netscape,1920,1080,Win32,18-09-23,18:33:49,other,other,442636
32,red,no,last-month,male,1697650489533,1920,23,id4_v2_b6_r5.jpg,4,5,6,2,1405,blue,Netscape,1920,1080,Win32,18-09-23,18:33:49,other,other,442636
32,blue,no,last-month,male,1697650489533,1920,24,id29_v2_b6_r7.jpg,29,7,6,2,696,red,Netscape,1920,1080,Win32,18-09-23,18:33:49,other,other,442636
32,red,no,last-month,male,1697650489533,1920,25,id14_v2_b6_r7.jpg,14,7,6,2,911,red,Netscape,1920,1080,Win32,18-09-23,18:33:49,other,other,442636
32,red,no,last-month,male,1697650489533,1920,26,id25_v2_b6_r7.jpg,25,7,6,2,1190,red,Netscape,1920,1080,Win32,18-09-23,18:33:49,other,other,442636
32,blue,no,last-month,male,1697650489533,1920,27,id3_v2_b6_r7.jpg,3,7,6,2,777,red,Netscape,1920,1080,Win32,18-09-23,18:33:49,other,other,442636
32,red,no,last-month,male,1697650489533,1920,28,id9_v1_b7_r5.jpg,9,5,7,1,893,blue,Netscape,1920,1080,Win32,18-09-23,18:33:49,other,other,442636
32,red,no,last-month,male,1697650489533,1920,29,id2_v2_b5_r6.jpg,2,6,5,2,541,red,Netscape,1920,1080,Win32,18-09-23,18:33:49,other,other,442636
32,blue,no,last-month,male,1697650489533,1920,30,id20_v2_b6_r7.jpg,20,7,6,2,731,red,Netscape,1920,1080,Win32,18-09-23,18:33:49,other,other,442636
32,blue,no,last-month,male,1697650489533,1920,31,id22_v2_b7_r6.jpg,22,6,7,2,673,blue,Netscape,1920,1080,Win32,18-09-23,18:33:49,other,other,442636
32,red,no,last-month,male,1697650489533,1920,32,id15_v1_b6_r8.jpg,15,8,6,1,1761,red,Netscape,1920,1080,Win32,18-09-23,18:33:49,other,other,442636
32,red,no,last-month,male,1697650489533,1920,33,id10_v1_b6_r7.jpg,10,7,6,1,789,red,Netscape,1920,1080,Win32,18-09-23,18:33:49,other,other,442636
32,blue,no,last-month,male,1697650489533,1920,34,id17_v2_b5_r6.jpg,17,6,5,2,1538,red,Netscape,1920,1080,Win32,18-09-23,18:33:49,other,other,442636
32,blue,no,last-month,male,1697650489533,1920,35,id5_v1_b6_r7.jpg,5,7,6,1,734,red,Netscape,1920,1080,Win32,18-09-23,18:33:49,other,other,442636
32,red,no,last-month,male,1697650489533,1920,36,id12_v2_b6_r7.jpg,12,7,6,2,948,red,Netscape,1920,1080,Win32,18-09-23,18:33:49,other,other,442636
32,blue,no,last-month,male,1697650489533,1920,37,id16_v1_b6_r7.jpg,16,7,6,1,569,red,Netscape,1920,1080,Win32,18-09-23,18:33:49,other,other,442636
32,red,no,last-month,male,1697650489533,1920,38,id7_v1_b6_r7.jpg,7,7,6,1,822,red,Netscape,1920,1080,Win32,18-09-23,18:33:49,other,other,442636
32,blue,no,last-month,male,1697650489533,1920,39,id26_v2_b6_r7.jpg,26,7,6,2,935,red,Netscape,1920,1080,Win32,18-09-23,18:33:49,other,other,442636
32,blue,no,last-month,male,1697650489533,1920,40,id8_v1_b6_r5.jpg,8,5,6,1,1221,blue,Netscape,1920,1080,Win32,18-09-23,18:33:49,other,other,442636
32,blue,no,last-month,male,1697650489533,1920,41,id1_v1_b7_r5.jpg,1,5,7,1,967,blue,Netscape,1920,1080,Win32,18-09-23,18:33:49,other,other,442636
32,blue,no,last-month,male,1697650489533,1920,42,id24_v1_b7_r6.jpg,24,6,7,1,1021,blue,Netscape,1920,1080,Win32,18-09-23,18:33:49,other,other,442636
32,blue,no,last-month,male,1697650489533,1920,43,id27_v1_b7_r6.jpg,27,6,7,1,798,blue,Netscape,1920,1080,Win32,18-09-23,18:33:49,other,other,442636
32,red,no,last-month,male,1697650489533,1920,44,id28_v1_b6_r7.jpg,28,7,6,1,969,red,Netscape,1920,1080,Win32,18-09-23,18:33:49,other,other,442636
32,blue,no,last-month,male,1697650489533,1920,45,id9_v2_b5_r7.jpg,9,7,5,2,685,red,Netscape,1920,1080,Win32,18-09-23,18:33:49,other,other,442636
32,blue,no,last-month,male,1697650489533,1920,46,id23_v2_b6_r5.jpg,23,5,6,2,1415,blue,Netscape,1920,1080,Win32,18-09-23,18:33:49,other,other,442636
32,blue,no,last-month,male,1697650489533,1920,47,id3_v1_b7_r6.jpg,3,6,7,1,1056,blue,Netscape,1920,1080,Win32,18-09-23,18:33:49,other,other,442636
32,blue,no,last-month,male,1697650489533,1920,48,id25_v1_b7_r6.jpg,25,6,7,1,929,blue,Netscape,1920,1080,Win32,18-09-23,18:33:49,other,other,442636
32,blue,no,last-month,male,1697650489533,1920,49,id11_v2_b6_r5.jpg,11,5,6,2,855,blue,Netscape,1920,1080,Win32,18-09-23,18:33:49,other,other,442636
32,red,no,last-month,male,1697650489533,1920,50,id4_v1_b5_r6.jpg,4,6,5,1,657,red,Netscape,1920,1080,Win32,18-09-23,18:33:49,other,other,442636
32,red,no,last-month,male,1697650489533,1920,51,id6_v2_b5_r7.jpg,6,7,5,2,969,red,Netscape,1920,1080,Win32,18-09-23,18:33:49,other,other,442636
32,blue,no,last-month,male,1697650489533,1920,52,id13_v1_b5_r6.jpg,13,6,5,1,1061,red,Netscape,1920,1080,Win32,18-09-23,18:33:49,other,other,442636
32,red,no,last-month,male,1697650489533,1920,53,id29_v1_b7_r6.jpg,29,6,7,1,606,blue,Netscape,1920,1080,Win32,18-09-23,18:33:49,other,other,442636
32,blue,no,last-month,male,1697650489533,1920,54,id18_v1_b7_r5.jpg,18,5,7,1,849,blue,Netscape,1920,1080,Win32,18-09-23,18:33:49,other,other,442636
32,red,no,last-month,male,1697650489533,1920,55,id19_v1_b6_r7.jpg,19,7,6,1,786,red,Netscape,1920,1080,Win32,18-09-23,18:33:49,other,other,442636
32,blue,no,last-month,male,1697650489533,1920,56,id21_v2_b7_r6.jpg,21,6,7,2,837,blue,Netscape,1920,1080,Win32,18-09-23,18:33:49,other,other,442636
32,blue,no,last-month,male,1697650489533,1920,57,id14_v1_b7_r6.jpg,14,6,7,1,1304,blue,Netscape,1920,1080,Win32,18-09-23,18:33:49,other,other,442636
32,blue,no,last-month,male,1697650489533,1920,58,id30_v1_b7_r6.jpg,30,6,7,1,638,blue,Netscape,1920,1080,Win32,18-09-23,18:33:49,other,other,442636
32,blue,no,last-month,male,1697650489533,1920,59,id2_v1_b6_r5.jpg,2,5,6,1,648,blue,Netscape,1920,1080,Win32,18-09-23,18:33:49,other,other,442636
29,blue,no,last-month,female,1697652535387,1280,0,id17_v1_b6_r5.jpg,17,5,6,1,4483,blue,Netscape,1920,1080,Win32,18-09-23,20:07:38,both,both,442691
29,blue,no,last-month,female,1697652535387,1280,1,id10_v2_b7_r6.jpg,10,6,7,2,1078,blue,Netscape,1920,1080,Win32,18-09-23,20:07:38,both,both,442691
29,red,no,last-month,female,1697652535387,1280,2,id12_v1_b7_r6.jpg,12,6,7,1,1466,blue,Netscape,1920,1080,Win32,18-09-23,20:07:38,both,both,442691
29,blue,no,last-month,female,1697652535387,1280,3,id20_v1_b7_r6.jpg,20,6,7,1,960,blue,Netscape,1920,1080,Win32,18-09-23,20:07:38,both,both,442691
29,red,no,last-month,female,1697652535387,1280,4,id5_v2_b7_r6.jpg,5,6,7,2,874,blue,Netscape,1920,1080,Win32,18-09-23,20:07:38,both,both,442691
29,blue,no,last-month,female,1697652535387,1280,5,id22_v1_b6_r7.jpg,22,7,6,1,590,red,Netscape,1920,1080,Win32,18-09-23,20:07:38,both,both,442691
29,blue,no,last-month,female,1697652535387,1280,6,id8_v2_b5_r6.jpg,8,6,5,2,515,red,Netscape,1920,1080,Win32,18-09-23,20:07:38,both,both,442691
29,red,no,last-month,female,1697652535387,1280,7,id7_v2_b7_r6.jpg,7,6,7,2,913,blue,Netscape,1920,1080,Win32,18-09-23,20:07:38,both,both,442691
29,blue,no,last-month,female,1697652535387,1280,8,id1_v2_b5_r7.jpg,1,7,5,2,1075,red,Netscape,1920,1080,Win32,18-09-23,20:07:38,both,both,442691
29,red,no,last-month,female,1697652535387,1280,9,id15_v2_b8_r6.jpg,15,6,8,2,866,blue,Netscape,1920,1080,Win32,18-09-23,20:07:38,both,both,442691
29,blue,no,last-month,female,1697652535387,1280,10,id24_v2_b6_r7.jpg,24,7,6,2,988,red,Netscape,1920,1080,Win32,18-09-23,20:07:38,both,both,442691
29,red,no,last-month,female,1697652535387,1280,11,id26_v1_b7_r6.jpg,26,6,7,1,621,blue,Netscape,1920,1080,Win32,18-09-23,20:07:38,both,both,442691
29,red,no,last-month,female,1697652535387,1280,12,id27_v2_b6_r7.jpg,27,7,6,2,890,red,Netscape,1920,1080,Win32,18-09-23,20:07:38,both,both,442691
29,blue,no,last-month,female,1697652535387,1280,13,id16_v2_b7_r6.jpg,16,6,7,2,742,blue,Netscape,1920,1080,Win32,18-09-23,20:07:38,both,both,442691
29,red,no,last-month,female,1697652535387,1280,14,id28_v2_b7_r6.jpg,28,6,7,2,817,blue,Netscape,1920,1080,Win32,18-09-23,20:07:38,both,both,442691
29,blue,no,last-month,female,1697652535387,1280,15,id6_v1_b7_r5.jpg,6,5,7,1,748,blue,Netscape,1920,1080,Win32,18-09-23,20:07:38,both,both,442691
29,red,no,last-month,female,1697652535387,1280,16,id23_v1_b5_r6.jpg,23,6,5,1,837,red,Netscape,1920,1080,Win32,18-09-23,20:07:38,both,both,442691
29,red,no,last-month,female,1697652535387,1280,17,id19_v2_b7_r6.jpg,19,6,7,2,902,blue,Netscape,1920,1080,Win32,18-09-23,20:07:38,both,both,442691
29,blue,no,last-month,female,1697652535387,1280,18,id11_v1_b5_r6.jpg,11,6,5,1,868,red,Netscape,1920,1080,Win32,18-09-23,20:07:38,both,both,442691
29,red,no,last-month,female,1697652535387,1280,19,id21_v1_b6_r7.jpg,21,7,6,1,696,red,Netscape,1920,1080,Win32,18-09-23,20:07:38,both,both,442691
29,blue,no,last-month,female,1697652535387,1280,20,id18_v2_b5_r7.jpg,18,7,5,2,964,red,Netscape,1920,1080,Win32,18-09-23,20:07:38,both,both,442691
29,blue,no,last-month,female,1697652535387,1280,21,id13_v2_b6_r5.jpg,13,5,6,2,1362,blue,Netscape,1920,1080,Win32,18-09-23,20:07:38,both,both,442691
29,red,no,last-month,female,1697652535387,1280,22,id30_v2_b6_r7.jpg,30,7,6,2,2679,red,Netscape,1920,1080,Win32,18-09-23,20:07:38,both,both,442691
29,red,no,last-month,female,1697652535387,1280,23,id4_v2_b6_r5.jpg,4,5,6,2,987,blue,Netscape,1920,1080,Win32,18-09-23,20:07:38,both,both,442691
29,blue,no,last-month,female,1697652535387,1280,24,id29_v2_b6_r7.jpg,29,7,6,2,1240,red,Netscape,1920,1080,Win32,18-09-23,20:07:38,both,both,442691
29,blue,no,last-month,female,1697652535387,1280,25,id14_v2_b6_r7.jpg,14,7,6,2,543,red,Netscape,1920,1080,Win32,18-09-23,20:07:38,both,both,442691
29,blue,no,last-month,female,1697652535387,1280,26,id25_v2_b6_r7.jpg,25,7,6,2,596,red,Netscape,1920,1080,Win32,18-09-23,20:07:38,both,both,442691
29,blue,no,last-month,female,1697652535387,1280,27,id3_v2_b6_r7.jpg,3,7,6,2,1120,red,Netscape,1920,1080,Win32,18-09-23,20:07:38,both,both,442691
29,red,no,last-month,female,1697652535387,1280,28,id9_v1_b7_r5.jpg,9,5,7,1,1143,blue,Netscape,1920,1080,Win32,18-09-23,20:07:38,both,both,442691
29,red,no,last-month,female,1697652535387,1280,29,id2_v2_b5_r6.jpg,2,6,5,2,1401,red,Netscape,1920,1080,Win32,18-09-23,20:07:38,both,both,442691
29,blue,no,last-month,female,1697652535387,1280,30,id20_v2_b6_r7.jpg,20,7,6,2,1172,red,Netscape,1920,1080,Win32,18-09-23,20:07:38,both,both,442691
29,blue,no,last-month,female,1697652535387,1280,31,id22_v2_b7_r6.jpg,22,6,7,2,2456,blue,Netscape,1920,1080,Win32,18-09-23,20:07:38,both,both,442691
29,blue,no,last-month,female,1697652535387,1280,32,id15_v1_b6_r8.jpg,15,8,6,1,926,red,Netscape,1920,1080,Win32,18-09-23,20:07:38,both,both,442691
29,red,no,last-month,female,1697652535387,1280,33,id10_v1_b6_r7.jpg,10,7,6,1,1086,red,Netscape,1920,1080,Win32,18-09-23,20:07:38,both,both,442691
29,blue,no,last-month,female,1697652535387,1280,34,id17_v2_b5_r6.jpg,17,6,5,2,1876,red,Netscape,1920,1080,Win32,18-09-23,20:07:38,both,both,442691
29,red,no,last-month,female,1697652535387,1280,35,id5_v1_b6_r7.jpg,5,7,6,1,1226,red,Netscape,1920,1080,Win32,18-09-23,20:07:38,both,both,442691
29,blue,no,last-month,female,1697652535387,1280,36,id12_v2_b6_r7.jpg,12,7,6,2,918,red,Netscape,1920,1080,Win32,18-09-23,20:07:38,both,both,442691
29,red,no,last-month,female,1697652535387,1280,37,id16_v1_b6_r7.jpg,16,7,6,1,1224,red,Netscape,1920,1080,Win32,18-09-23,20:07:38,both,both,442691
29,blue,no,last-month,female,1697652535387,1280,38,id7_v1_b6_r7.jpg,7,7,6,1,971,red,Netscape,1920,1080,Win32,18-09-23,20:07:38,both,both,442691
29,red,no,last-month,female,1697652535387,1280,39,id26_v2_b6_r7.jpg,26,7,6,2,1455,red,Netscape,1920,1080,Win32,18-09-23,20:07:38,both,both,442691
29,blue,no,last-month,female,1697652535387,1280,40,id8_v1_b6_r5.jpg,8,5,6,1,1127,blue,Netscape,1920,1080,Win32,18-09-23,20:07:38,both,both,442691
29,blue,no,last-month,female,1697652535387,1280,41,id1_v1_b7_r5.jpg,1,5,7,1,1576,blue,Netscape,1920,1080,Win32,18-09-23,20:07:38,both,both,442691
29,blue,no,last-month,female,1697652535387,1280,42,id24_v1_b7_r6.jpg,24,6,7,1,1515,blue,Netscape,1920,1080,Win32,18-09-23,20:07:38,both,both,442691
29,blue,no,last-month,female,1697652535387,1280,43,id27_v1_b7_r6.jpg,27,6,7,1,1204,blue,Netscape,1920,1080,Win32,18-09-23,20:07:38,both,both,442691
29,red,no,last-month,female,1697652535387,1280,44,id28_v1_b6_r7.jpg,28,7,6,1,661,red,Netscape,1920,1080,Win32,18-09-23,20:07:38,both,both,442691
29,blue,no,last-month,female,1697652535387,1280,45,id9_v2_b5_r7.jpg,9,7,5,2,1102,red,Netscape,1920,1080,Win32,18-09-23,20:07:38,both,both,442691
29,blue,no,last-month,female,1697652535387,1280,46,id23_v2_b6_r5.jpg,23,5,6,2,1223,blue,Netscape,1920,1080,Win32,18-09-23,20:07:38,both,both,442691
29,blue,no,last-month,female,1697652535387,1280,47,id3_v1_b7_r6.jpg,3,6,7,1,1098,blue,Netscape,1920,1080,Win32,18-09-23,20:07:38,both,both,442691
29,blue,no,last-month,female,1697652535387,1280,48,id25_v1_b7_r6.jpg,25,6,7,1,1423,blue,Netscape,1920,1080,Win32,18-09-23,20:07:38,both,both,442691
29,blue,no,last-month,female,1697652535387,1280,49,id11_v2_b6_r5.jpg,11,5,6,2,980,blue,Netscape,1920,1080,Win32,18-09-23,20:07:38,both,both,442691
29,red,no,last-month,female,1697652535387,1280,50,id4_v1_b5_r6.jpg,4,6,5,1,4436,red,Netscape,1920,1080,Win32,18-09-23,20:07:38,both,both,442691
29,blue,no,last-month,female,1697652535387,1280,51,id6_v2_b5_r7.jpg,6,7,5,2,790,red,Netscape,1920,1080,Win32,18-09-23,20:07:38,both,both,442691
29,red,no,last-month,female,1697652535387,1280,52,id13_v1_b5_r6.jpg,13,6,5,1,890,red,Netscape,1920,1080,Win32,18-09-23,20:07:38,both,both,442691
29,blue,no,last-month,female,1697652535387,1280,53,id29_v1_b7_r6.jpg,29,6,7,1,1042,blue,Netscape,1920,1080,Win32,18-09-23,20:07:38,both,both,442691
29,red,no,last-month,female,1697652535387,1280,54,id18_v1_b7_r5.jpg,18,5,7,1,972,blue,Netscape,1920,1080,Win32,18-09-23,20:07:38,both,both,442691
29,blue,no,last-month,female,1697652535387,1280,55,id19_v1_b6_r7.jpg,19,7,6,1,621,red,Netscape,1920,1080,Win32,18-09-23,20:07:38,both,both,442691
29,blue,no,last-month,female,1697652535387,1280,56,id21_v2_b7_r6.jpg,21,6,7,2,944,blue,Netscape,1920,1080,Win32,18-09-23,20:07:38,both,both,442691
29,blue,no,last-month,female,1697652535387,1280,57,id14_v1_b7_r6.jpg,14,6,7,1,178,blue,Netscape,1920,1080,Win32,18-09-23,20:07:38,both,both,442691
29,blue,no,last-month,female,1697652535387,1280,58,id30_v1_b7_r6.jpg,30,6,7,1,1190,blue,Netscape,1920,1080,Win32,18-09-23,20:07:38,both,both,442691
29,blue,no,last-month,female,1697652535387,1280,59,id2_v1_b6_r5.jpg,2,5,6,1,1068,blue,Netscape,1920,1080,Win32,18-09-23,20:07:38,both,both,442691
28,blue,no,last-month,male,1697654884469,1232,0,id17_v1_b6_r5.jpg,17,5,6,1,1361,blue,Netscape,1280,800,Win32,18-09-23,20:47:34,other,blue,442752
28,blue,no,last-month,male,1697654884469,1232,1,id10_v2_b7_r6.jpg,10,6,7,2,1224,blue,Netscape,1280,800,Win32,18-09-23,20:47:34,other,blue,442752
28,blue,no,last-month,male,1697654884469,1232,2,id12_v1_b7_r6.jpg,12,6,7,1,1089,blue,Netscape,1280,800,Win32,18-09-23,20:47:34,other,blue,442752
28,blue,no,last-month,male,1697654884469,1232,3,id20_v1_b7_r6.jpg,20,6,7,1,1218,blue,Netscape,1280,800,Win32,18-09-23,20:47:34,other,blue,442752
28,red,no,last-month,male,1697654884469,1232,4,id5_v2_b7_r6.jpg,5,6,7,2,853,blue,Netscape,1280,800,Win32,18-09-23,20:47:34,other,blue,442752
28,red,no,last-month,male,1697654884469,1232,5,id22_v1_b6_r7.jpg,22,7,6,1,959,red,Netscape,1280,800,Win32,18-09-23,20:47:34,other,blue,442752
28,red,no,last-month,male,1697654884469,1232,6,id8_v2_b5_r6.jpg,8,6,5,2,777,red,Netscape,1280,800,Win32,18-09-23,20:47:34,other,blue,442752
28,blue,no,last-month,male,1697654884469,1232,7,id7_v2_b7_r6.jpg,7,6,7,2,2224,blue,Netscape,1280,800,Win32,18-09-23,20:47:34,other,blue,442752
28,red,no,last-month,male,1697654884469,1232,8,id1_v2_b5_r7.jpg,1,7,5,2,847,red,Netscape,1280,800,Win32,18-09-23,20:47:34,other,blue,442752
28,blue,no,last-month,male,1697654884469,1232,9,id15_v2_b8_r6.jpg,15,6,8,2,927,blue,Netscape,1280,800,Win32,18-09-23,20:47:34,other,blue,442752
28,red,no,last-month,male,1697654884469,1232,10,id24_v2_b6_r7.jpg,24,7,6,2,922,red,Netscape,1280,800,Win32,18-09-23,20:47:34,other,blue,442752
28,blue,no,last-month,male,1697654884469,1232,11,id26_v1_b7_r6.jpg,26,6,7,1,8516,blue,Netscape,1280,800,Win32,18-09-23,20:47:34,other,blue,442752
28,blue,no,last-month,male,1697654884469,1232,12,id27_v2_b6_r7.jpg,27,7,6,2,1268,red,Netscape,1280,800,Win32,18-09-23,20:47:34,other,blue,442752
28,blue,no,last-month,male,1697654884469,1232,13,id16_v2_b7_r6.jpg,16,6,7,2,1035,blue,Netscape,1280,800,Win32,18-09-23,20:47:34,other,blue,442752
28,blue,no,last-month,male,1697654884469,1232,14,id28_v2_b7_r6.jpg,28,6,7,2,703,blue,Netscape,1280,800,Win32,18-09-23,20:47:34,other,blue,442752
28,blue,no,last-month,male,1697654884469,1232,15,id6_v1_b7_r5.jpg,6,5,7,1,752,blue,Netscape,1280,800,Win32,18-09-23,20:47:34,other,blue,442752
28,blue,no,last-month,male,1697654884469,1232,16,id23_v1_b5_r6.jpg,23,6,5,1,745,red,Netscape,1280,800,Win32,18-09-23,20:47:34,other,blue,442752
28,blue,no,last-month,male,1697654884469,1232,17,id19_v2_b7_r6.jpg,19,6,7,2,1318,blue,Netscape,1280,800,Win32,18-09-23,20:47:34,other,blue,442752
28,blue,no,last-month,male,1697654884469,1232,18,id11_v1_b5_r6.jpg,11,6,5,1,648,red,Netscape,1280,800,Win32,18-09-23,20:47:34,other,blue,442752
28,red,no,last-month,male,1697654884469,1232,19,id21_v1_b6_r7.jpg,21,7,6,1,715,red,Netscape,1280,800,Win32,18-09-23,20:47:34,other,blue,442752
28,red,no,last-month,male,1697654884469,1232,20,id18_v2_b5_r7.jpg,18,7,5,2,1578,red,Netscape,1280,800,Win32,18-09-23,20:47:34,other,blue,442752
28,red,no,last-month,male,1697654884469,1232,21,id13_v2_b6_r5.jpg,13,5,6,2,621,blue,Netscape,1280,800,Win32,18-09-23,20:47:34,other,blue,442752
28,red,no,last-month,male,1697654884469,1232,22,id30_v2_b6_r7.jpg,30,7,6,2,747,red,Netscape,1280,800,Win32,18-09-23,20:47:34,other,blue,442752
28,blue,no,last-month,male,1697654884469,1232,23,id4_v2_b6_r5.jpg,4,5,6,2,974,blue,Netscape,1280,800,Win32,18-09-23,20:47:34,other,blue,442752
28,blue,no,last-month,male,1697654884469,1232,24,id29_v2_b6_r7.jpg,29,7,6,2,729,red,Netscape,1280,800,Win32,18-09-23,20:47:34,other,blue,442752
28,blue,no,last-month,male,1697654884469,1232,25,id14_v2_b6_r7.jpg,14,7,6,2,1485,red,Netscape,1280,800,Win32,18-09-23,20:47:34,other,blue,442752
28,red,no,last-month,male,1697654884469,1232,26,id25_v2_b6_r7.jpg,25,7,6,2,781,red,Netscape,1280,800,Win32,18-09-23,20:47:34,other,blue,442752
28,red,no,last-month,male,1697654884469,1232,27,id3_v2_b6_r7.jpg,3,7,6,2,760,red,Netscape,1280,800,Win32,18-09-23,20:47:34,other,blue,442752
28,blue,no,last-month,male,1697654884469,1232,28,id9_v1_b7_r5.jpg,9,5,7,1,853,blue,Netscape,1280,800,Win32,18-09-23,20:47:34,other,blue,442752
28,red,no,last-month,male,1697654884469,1232,29,id2_v2_b5_r6.jpg,2,6,5,2,719,red,Netscape,1280,800,Win32,18-09-23,20:47:34,other,blue,442752
28,red,no,last-month,male,1697654884469,1232,30,id20_v2_b6_r7.jpg,20,7,6,2,801,red,Netscape,1280,800,Win32,18-09-23,20:47:34,other,blue,442752
28,blue,no,last-month,male,1697654884469,1232,31,id22_v2_b7_r6.jpg,22,6,7,2,835,blue,Netscape,1280,800,Win32,18-09-23,20:47:34,other,blue,442752
28,red,no,last-month,male,1697654884469,1232,32,id15_v1_b6_r8.jpg,15,8,6,1,964,red,Netscape,1280,800,Win32,18-09-23,20:47:34,other,blue,442752
28,red,no,last-month,male,1697654884469,1232,33,id10_v1_b6_r7.jpg,10,7,6,1,895,red,Netscape,1280,800,Win32,18-09-23,20:47:34,other,blue,442752
28,blue,no,last-month,male,1697654884469,1232,34,id17_v2_b5_r6.jpg,17,6,5,2,712,red,Netscape,1280,800,Win32,18-09-23,20:47:34,other,blue,442752
28,blue,no,last-month,male,1697654884469,1232,35,id5_v1_b6_r7.jpg,5,7,6,1,834,red,Netscape,1280,800,Win32,18-09-23,20:47:34,other,blue,442752
28,red,no,last-month,male,1697654884469,1232,36,id12_v2_b6_r7.jpg,12,7,6,2,737,red,Netscape,1280,800,Win32,18-09-23,20:47:34,other,blue,442752
28,blue,no,last-month,male,1697654884469,1232,37,id16_v1_b6_r7.jpg,16,7,6,1,727,red,Netscape,1280,800,Win32,18-09-23,20:47:34,other,blue,442752
28,red,no,last-month,male,1697654884469,1232,38,id7_v1_b6_r7.jpg,7,7,6,1,707,red,Netscape,1280,800,Win32,18-09-23,20:47:34,other,blue,442752
28,red,no,last-month,male,1697654884469,1232,39,id26_v2_b6_r7.jpg,26,7,6,2,637,red,Netscape,1280,800,Win32,18-09-23,20:47:34,other,blue,442752
28,blue,no,last-month,male,1697654884469,1232,40,id8_v1_b6_r5.jpg,8,5,6,1,894,blue,Netscape,1280,800,Win32,18-09-23,20:47:34,other,blue,442752
28,blue,no,last-month,male,1697654884469,1232,41,id1_v1_b7_r5.jpg,1,5,7,1,632,blue,Netscape,1280,800,Win32,18-09-23,20:47:34,other,blue,442752
28,blue,no,last-month,male,1697654884469,1232,42,id24_v1_b7_r6.jpg,24,6,7,1,892,blue,Netscape,1280,800,Win32,18-09-23,20:47:34,other,blue,442752
28,blue,no,last-month,male,1697654884469,1232,43,id27_v1_b7_r6.jpg,27,6,7,1,732,blue,Netscape,1280,800,Win32,18-09-23,20:47:34,other,blue,442752
28,red,no,last-month,male,1697654884469,1232,44,id28_v1_b6_r7.jpg,28,7,6,1,568,red,Netscape,1280,800,Win32,18-09-23,20:47:34,other,blue,442752
28,red,no,last-month,male,1697654884469,1232,45,id9_v2_b5_r7.jpg,9,7,5,2,562,red,Netscape,1280,800,Win32,18-09-23,20:47:34,other,blue,442752
28,blue,no,last-month,male,1697654884469,1232,46,id23_v2_b6_r5.jpg,23,5,6,2,1320,blue,Netscape,1280,800,Win32,18-09-23,20:47:34,other,blue,442752
28,blue,no,last-month,male,1697654884469,1232,47,id3_v1_b7_r6.jpg,3,6,7,1,766,blue,Netscape,1280,800,Win32,18-09-23,20:47:34,other,blue,442752
28,blue,no,last-month,male,1697654884469,1232,48,id25_v1_b7_r6.jpg,25,6,7,1,898,blue,Netscape,1280,800,Win32,18-09-23,20:47:34,other,blue,442752
28,blue,no,last-month,male,1697654884469,1232,49,id11_v2_b6_r5.jpg,11,5,6,2,780,blue,Netscape,1280,800,Win32,18-09-23,20:47:34,other,blue,442752
28,red,no,last-month,male,1697654884469,1232,50,id4_v1_b5_r6.jpg,4,6,5,1,1358,red,Netscape,1280,800,Win32,18-09-23,20:47:34,other,blue,442752
28,red,no,last-month,male,1697654884469,1232,51,id6_v2_b5_r7.jpg,6,7,5,2,852,red,Netscape,1280,800,Win32,18-09-23,20:47:34,other,blue,442752
28,blue,no,last-month,male,1697654884469,1232,52,id13_v1_b5_r6.jpg,13,6,5,1,837,red,Netscape,1280,800,Win32,18-09-23,20:47:34,other,blue,442752
28,red,no,last-month,male,1697654884469,1232,53,id29_v1_b7_r6.jpg,29,6,7,1,719,blue,Netscape,1280,800,Win32,18-09-23,20:47:34,other,blue,442752
28,blue,no,last-month,male,1697654884469,1232,54,id18_v1_b7_r5.jpg,18,5,7,1,1267,blue,Netscape,1280,800,Win32,18-09-23,20:47:34,other,blue,442752
28,blue,no,last-month,male,1697654884469,1232,55,id19_v1_b6_r7.jpg,19,7,6,1,764,red,Netscape,1280,800,Win32,18-09-23,20:47:34,other,blue,442752
28,red,no,last-month,male,1697654884469,1232,56,id21_v2_b7_r6.jpg,21,6,7,2,767,blue,Netscape,1280,800,Win32,18-09-23,20:47:34,other,blue,442752
28,blue,no,last-month,male,1697654884469,1232,57,id14_v1_b7_r6.jpg,14,6,7,1,845,blue,Netscape,1280,800,Win32,18-09-23,20:47:34,other,blue,442752
28,blue,no,last-month,male,1697654884469,1232,58,id30_v1_b7_r6.jpg,30,6,7,1,863,blue,Netscape,1280,800,Win32,18-09-23,20:47:34,other,blue,442752
28,blue,no,last-month,male,1697654884469,1232,59,id2_v1_b6_r5.jpg,2,5,6,1,583,blue,Netscape,1280,800,Win32,18-09-23,20:47:34,other,blue,442752
41,blue,no,more,female,1697735624039,384,0,id17_v1_b6_r5.jpg,17,5,6,1,7101,blue,Netscape,384,857,Linux armv8l,19-09-23,20:13:50,blue,blue,443802
41,blue,no,more,female,1697735624039,384,1,id10_v2_b7_r6.jpg,10,6,7,2,1502,blue,Netscape,384,857,Linux armv8l,19-09-23,20:13:50,blue,blue,443802
41,red,no,more,female,1697735624039,384,2,id12_v1_b7_r6.jpg,12,6,7,1,1624,blue,Netscape,384,857,Linux armv8l,19-09-23,20:13:50,blue,blue,443802
41,blue,no,more,female,1697735624039,384,3,id20_v1_b7_r6.jpg,20,6,7,1,999,blue,Netscape,384,857,Linux armv8l,19-09-23,20:13:50,blue,blue,443802
41,red,no,more,female,1697735624039,384,4,id5_v2_b7_r6.jpg,5,6,7,2,548,blue,Netscape,384,857,Linux armv8l,19-09-23,20:13:50,blue,blue,443802
41,blue,no,more,female,1697735624039,384,5,id22_v1_b6_r7.jpg,22,7,6,1,1289,red,Netscape,384,857,Linux armv8l,19-09-23,20:13:50,blue,blue,443802
41,blue,no,more,female,1697735624039,384,6,id8_v2_b5_r6.jpg,8,6,5,2,950,red,Netscape,384,857,Linux armv8l,19-09-23,20:13:50,blue,blue,443802
41,red,no,more,female,1697735624039,384,7,id7_v2_b7_r6.jpg,7,6,7,2,538,blue,Netscape,384,857,Linux armv8l,19-09-23,20:13:50,blue,blue,443802
41,blue,no,more,female,1697735624039,384,8,id1_v2_b5_r7.jpg,1,7,5,2,665,red,Netscape,384,857,Linux armv8l,19-09-23,20:13:50,blue,blue,443802
41,red,no,more,female,1697735624039,384,9,id15_v2_b8_r6.jpg,15,6,8,2,1141,blue,Netscape,384,857,Linux armv8l,19-09-23,20:13:50,blue,blue,443802
41,red,no,more,female,1697735624039,384,10,id24_v2_b6_r7.jpg,24,7,6,2,911,red,Netscape,384,857,Linux armv8l,19-09-23,20:13:50,blue,blue,443802
41,blue,no,more,female,1697735624039,384,11,id26_v1_b7_r6.jpg,26,6,7,1,3273,blue,Netscape,384,857,Linux armv8l,19-09-23,20:13:50,blue,blue,443802
41,red,no,more,female,1697735624039,384,12,id27_v2_b6_r7.jpg,27,7,6,2,1240,red,Netscape,384,857,Linux armv8l,19-09-23,20:13:50,blue,blue,443802
41,red,no,more,female,1697735624039,384,13,id16_v2_b7_r6.jpg,16,6,7,2,619,blue,Netscape,384,857,Linux armv8l,19-09-23,20:13:50,blue,blue,443802
41,blue,no,more,female,1697735624039,384,14,id28_v2_b7_r6.jpg,28,6,7,2,587,blue,Netscape,384,857,Linux armv8l,19-09-23,20:13:50,blue,blue,443802
41,blue,no,more,female,1697735624039,384,15,id6_v1_b7_r5.jpg,6,5,7,1,849,blue,Netscape,384,857,Linux armv8l,19-09-23,20:13:50,blue,blue,443802
41,red,no,more,female,1697735624039,384,16,id23_v1_b5_r6.jpg,23,6,5,1,632,red,Netscape,384,857,Linux armv8l,19-09-23,20:13:50,blue,blue,443802
41,blue,no,more,female,1697735624039,384,17,id19_v2_b7_r6.jpg,19,6,7,2,755,blue,Netscape,384,857,Linux armv8l,19-09-23,20:13:50,blue,blue,443802
41,red,no,more,female,1697735624039,384,18,id11_v1_b5_r6.jpg,11,6,5,1,580,red,Netscape,384,857,Linux armv8l,19-09-23,20:13:50,blue,blue,443802
41,blue,no,more,female,1697735624039,384,19,id21_v1_b6_r7.jpg,21,7,6,1,562,red,Netscape,384,857,Linux armv8l,19-09-23,20:13:50,blue,blue,443802
41,blue,no,more,female,1697735624039,384,20,id18_v2_b5_r7.jpg,18,7,5,2,898,red,Netscape,384,857,Linux armv8l,19-09-23,20:13:50,blue,blue,443802
41,red,no,more,female,1697735624039,384,21,id13_v2_b6_r5.jpg,13,5,6,2,548,blue,Netscape,384,857,Linux armv8l,19-09-23,20:13:50,blue,blue,443802
41,red,no,more,female,1697735624039,384,22,id30_v2_b6_r7.jpg,30,7,6,2,764,red,Netscape,384,857,Linux armv8l,19-09-23,20:13:50,blue,blue,443802
41,blue,no,more,female,1697735624039,384,23,id4_v2_b6_r5.jpg,4,5,6,2,554,blue,Netscape,384,857,Linux armv8l,19-09-23,20:13:50,blue,blue,443802
41,blue,no,more,female,1697735624039,384,24,id29_v2_b6_r7.jpg,29,7,6,2,1636,red,Netscape,384,857,Linux armv8l,19-09-23,20:13:50,blue,blue,443802
41,red,no,more,female,1697735624039,384,25,id14_v2_b6_r7.jpg,14,7,6,2,442,red,Netscape,384,857,Linux armv8l,19-09-23,20:13:50,blue,blue,443802
41,blue,no,more,female,1697735624039,384,26,id25_v2_b6_r7.jpg,25,7,6,2,497,red,Netscape,384,857,Linux armv8l,19-09-23,20:13:50,blue,blue,443802
41,red,no,more,female,1697735624039,384,27,id3_v2_b6_r7.jpg,3,7,6,2,471,red,Netscape,384,857,Linux armv8l,19-09-23,20:13:50,blue,blue,443802
41,blue,no,more,female,1697735624039,384,28,id9_v1_b7_r5.jpg,9,5,7,1,547,blue,Netscape,384,857,Linux armv8l,19-09-23,20:13:50,blue,blue,443802
41,red,no,more,female,1697735624039,384,29,id2_v2_b5_r6.jpg,2,6,5,2,666,red,Netscape,384,857,Linux armv8l,19-09-23,20:13:50,blue,blue,443802
41,blue,no,more,female,1697735624039,384,30,id20_v2_b6_r7.jpg,20,7,6,2,934,red,Netscape,384,857,Linux armv8l,19-09-23,20:13:50,blue,blue,443802
41,red,no,more,female,1697735624039,384,31,id22_v2_b7_r6.jpg,22,6,7,2,636,blue,Netscape,384,857,Linux armv8l,19-09-23,20:13:50,blue,blue,443802
41,red,no,more,female,1697735624039,384,32,id15_v1_b6_r8.jpg,15,8,6,1,572,red,Netscape,384,857,Linux armv8l,19-09-23,20:13:50,blue,blue,443802
41,red,no,more,female,1697735624039,384,33,id10_v1_b6_r7.jpg,10,7,6,1,635,red,Netscape,384,857,Linux armv8l,19-09-23,20:13:50,blue,blue,443802
41,blue,no,more,female,1697735624039,384,34,id17_v2_b5_r6.jpg,17,6,5,2,546,red,Netscape,384,857,Linux armv8l,19-09-23,20:13:50,blue,blue,443802
41,blue,no,more,female,1697735624039,384,35,id5_v1_b6_r7.jpg,5,7,6,1,581,red,Netscape,384,857,Linux armv8l,19-09-23,20:13:50,blue,blue,443802
41,red,no,more,female,1697735624039,384,36,id12_v2_b6_r7.jpg,12,7,6,2,1390,red,Netscape,384,857,Linux armv8l,19-09-23,20:13:50,blue,blue,443802
41,blue,no,more,female,1697735624039,384,37,id16_v1_b6_r7.jpg,16,7,6,1,781,red,Netscape,384,857,Linux armv8l,19-09-23,20:13:50,blue,blue,443802
41,red,no,more,female,1697735624039,384,38,id7_v1_b6_r7.jpg,7,7,6,1,925,red,Netscape,384,857,Linux armv8l,19-09-23,20:13:50,blue,blue,443802
41,blue,no,more,female,1697735624039,384,39,id26_v2_b6_r7.jpg,26,7,6,2,682,red,Netscape,384,857,Linux armv8l,19-09-23,20:13:50,blue,blue,443802
41,blue,no,more,female,1697735624039,384,40,id8_v1_b6_r5.jpg,8,5,6,1,849,blue,Netscape,384,857,Linux armv8l,19-09-23,20:13:50,blue,blue,443802
41,blue,no,more,female,1697735624039,384,41,id1_v1_b7_r5.jpg,1,5,7,1,554,blue,Netscape,384,857,Linux armv8l,19-09-23,20:13:50,blue,blue,443802
41,blue,no,more,female,1697735624039,384,42,id24_v1_b7_r6.jpg,24,6,7,1,640,blue,Netscape,384,857,Linux armv8l,19-09-23,20:13:50,blue,blue,443802
41,blue,no,more,female,1697735624039,384,43,id27_v1_b7_r6.jpg,27,6,7,1,570,blue,Netscape,384,857,Linux armv8l,19-09-23,20:13:50,blue,blue,443802
41,red,no,more,female,1697735624039,384,44,id28_v1_b6_r7.jpg,28,7,6,1,1108,red,Netscape,384,857,Linux armv8l,19-09-23,20:13:50,blue,blue,443802
41,blue,no,more,female,1697735624039,384,45,id9_v2_b5_r7.jpg,9,7,5,2,740,red,Netscape,384,857,Linux armv8l,19-09-23,20:13:50,blue,blue,443802
41,red,no,more,female,1697735624039,384,46,id23_v2_b6_r5.jpg,23,5,6,2,612,blue,Netscape,384,857,Linux armv8l,19-09-23,20:13:50,blue,blue,443802
41,blue,no,more,female,1697735624039,384,47,id3_v1_b7_r6.jpg,3,6,7,1,499,blue,Netscape,384,857,Linux armv8l,19-09-23,20:13:50,blue,blue,443802
41,blue,no,more,female,1697735624039,384,48,id25_v1_b7_r6.jpg,25,6,7,1,498,blue,Netscape,384,857,Linux armv8l,19-09-23,20:13:50,blue,blue,443802
41,blue,no,more,female,1697735624039,384,49,id11_v2_b6_r5.jpg,11,5,6,2,523,blue,Netscape,384,857,Linux armv8l,19-09-23,20:13:50,blue,blue,443802
41,blue,no,more,female,1697735624039,384,50,id4_v1_b5_r6.jpg,4,6,5,1,498,red,Netscape,384,857,Linux armv8l,19-09-23,20:13:50,blue,blue,443802
41,blue,no,more,female,1697735624039,384,51,id6_v2_b5_r7.jpg,6,7,5,2,1403,red,Netscape,384,857,Linux armv8l,19-09-23,20:13:50,blue,blue,443802
41,red,no,more,female,1697735624039,384,52,id13_v1_b5_r6.jpg,13,6,5,1,531,red,Netscape,384,857,Linux armv8l,19-09-23,20:13:50,blue,blue,443802
41,red,no,more,female,1697735624039,384,53,id29_v1_b7_r6.jpg,29,6,7,1,2411,blue,Netscape,384,857,Linux armv8l,19-09-23,20:13:50,blue,blue,443802
41,red,no,more,female,1697735624039,384,54,id18_v1_b7_r5.jpg,18,5,7,1,1232,blue,Netscape,384,857,Linux armv8l,19-09-23,20:13:50,blue,blue,443802
41,red,no,more,female,1697735624039,384,55,id19_v1_b6_r7.jpg,19,7,6,1,421,red,Netscape,384,857,Linux armv8l,19-09-23,20:13:50,blue,blue,443802
41,red,no,more,female,1697735624039,384,56,id21_v2_b7_r6.jpg,21,6,7,2,432,blue,Netscape,384,857,Linux armv8l,19-09-23,20:13:50,blue,blue,443802
41,red,no,more,female,1697735624039,384,57,id14_v1_b7_r6.jpg,14,6,7,1,648,blue,Netscape,384,857,Linux armv8l,19-09-23,20:13:50,blue,blue,443802
41,blue,no,more,female,1697735624039,384,58,id30_v1_b7_r6.jpg,30,6,7,1,523,blue,Netscape,384,857,Linux armv8l,19-09-23,20:13:50,blue,blue,443802
41,blue,no,more,female,1697735624039,384,59,id2_v1_b6_r5.jpg,2,5,6,1,515,blue,Netscape,384,857,Linux armv8l,19-09-23,20:13:50,blue,blue,443802
30,blue,no,last-month,male,1697736141378,1470,0,id17_v1_b6_r5.jpg,17,5,6,1,3705,blue,Netscape,1470,956,MacIntel,19-09-23,19:21:26,blue,blue,443820
30,blue,no,last-month,male,1697736141378,1470,1,id10_v2_b7_r6.jpg,10,6,7,2,4566,blue,Netscape,1470,956,MacIntel,19-09-23,19:21:26,blue,blue,443820
30,red,no,last-month,male,1697736141378,1470,2,id12_v1_b7_r6.jpg,12,6,7,1,705,blue,Netscape,1470,956,MacIntel,19-09-23,19:21:26,blue,blue,443820
30,red,no,last-month,male,1697736141378,1470,3,id20_v1_b7_r6.jpg,20,6,7,1,1601,blue,Netscape,1470,956,MacIntel,19-09-23,19:21:26,blue,blue,443820
30,red,no,last-month,male,1697736141378,1470,4,id5_v2_b7_r6.jpg,5,6,7,2,535,blue,Netscape,1470,956,MacIntel,19-09-23,19:21:26,blue,blue,443820
30,blue,no,last-month,male,1697736141378,1470,5,id22_v1_b6_r7.jpg,22,7,6,1,541,red,Netscape,1470,956,MacIntel,19-09-23,19:21:26,blue,blue,443820
30,blue,no,last-month,male,1697736141378,1470,6,id8_v2_b5_r6.jpg,8,6,5,2,564,red,Netscape,1470,956,MacIntel,19-09-23,19:21:26,blue,blue,443820
30,blue,no,last-month,male,1697736141378,1470,7,id7_v2_b7_r6.jpg,7,6,7,2,11688,blue,Netscape,1470,956,MacIntel,19-09-23,19:21:26,blue,blue,443820
30,red,no,last-month,male,1697736141378,1470,8,id1_v2_b5_r7.jpg,1,7,5,2,1638,red,Netscape,1470,956,MacIntel,19-09-23,19:21:26,blue,blue,443820
30,blue,no,last-month,male,1697736141378,1470,9,id15_v2_b8_r6.jpg,15,6,8,2,2500,blue,Netscape,1470,956,MacIntel,19-09-23,19:21:26,blue,blue,443820
30,blue,no,last-month,male,1697736141378,1470,10,id24_v2_b6_r7.jpg,24,7,6,2,990,red,Netscape,1470,956,MacIntel,19-09-23,19:21:26,blue,blue,443820
30,blue,no,last-month,male,1697736141378,1470,11,id26_v1_b7_r6.jpg,26,6,7,1,4005,blue,Netscape,1470,956,MacIntel,19-09-23,19:21:26,blue,blue,443820
30,red,no,last-month,male,1697736141378,1470,12,id27_v2_b6_r7.jpg,27,7,6,2,3111,red,Netscape,1470,956,MacIntel,19-09-23,19:21:26,blue,blue,443820
30,blue,no,last-month,male,1697736141378,1470,13,id16_v2_b7_r6.jpg,16,6,7,2,3762,blue,Netscape,1470,956,MacIntel,19-09-23,19:21:26,blue,blue,443820
30,blue,no,last-month,male,1697736141378,1470,14,id28_v2_b7_r6.jpg,28,6,7,2,1385,blue,Netscape,1470,956,MacIntel,19-09-23,19:21:26,blue,blue,443820
30,blue,no,last-month,male,1697736141378,1470,15,id6_v1_b7_r5.jpg,6,5,7,1,505,blue,Netscape,1470,956,MacIntel,19-09-23,19:21:26,blue,blue,443820
30,red,no,last-month,male,1697736141378,1470,16,id23_v1_b5_r6.jpg,23,6,5,1,820,red,Netscape,1470,956,MacIntel,19-09-23,19:21:26,blue,blue,443820
30,blue,no,last-month,male,1697736141378,1470,17,id19_v2_b7_r6.jpg,19,6,7,2,1117,blue,Netscape,1470,956,MacIntel,19-09-23,19:21:26,blue,blue,443820
30,blue,no,last-month,male,1697736141378,1470,18,id11_v1_b5_r6.jpg,11,6,5,1,2291,red,Netscape,1470,956,MacIntel,19-09-23,19:21:26,blue,blue,443820
30,blue,no,last-month,male,1697736141378,1470,19,id21_v1_b6_r7.jpg,21,7,6,1,855,red,Netscape,1470,956,MacIntel,19-09-23,19:21:26,blue,blue,443820
30,red,no,last-month,male,1697736141378,1470,20,id18_v2_b5_r7.jpg,18,7,5,2,698,red,Netscape,1470,956,MacIntel,19-09-23,19:21:26,blue,blue,443820
30,red,no,last-month,male,1697736141378,1470,21,id13_v2_b6_r5.jpg,13,5,6,2,913,blue,Netscape,1470,956,MacIntel,19-09-23,19:21:26,blue,blue,443820
30,blue,no,last-month,male,1697736141378,1470,22,id30_v2_b6_r7.jpg,30,7,6,2,703,red,Netscape,1470,956,MacIntel,19-09-23,19:21:26,blue,blue,443820
30,red,no,last-month,male,1697736141378,1470,23,id4_v2_b6_r5.jpg,4,5,6,2,1037,blue,Netscape,1470,956,MacIntel,19-09-23,19:21:26,blue,blue,443820
30,red,no,last-month,male,1697736141378,1470,24,id29_v2_b6_r7.jpg,29,7,6,2,809,red,Netscape,1470,956,MacIntel,19-09-23,19:21:26,blue,blue,443820
30,blue,no,last-month,male,1697736141378,1470,25,id14_v2_b6_r7.jpg,14,7,6,2,800,red,Netscape,1470,956,MacIntel,19-09-23,19:21:26,blue,blue,443820
30,blue,no,last-month,male,1697736141378,1470,26,id25_v2_b6_r7.jpg,25,7,6,2,2101,red,Netscape,1470,956,MacIntel,19-09-23,19:21:26,blue,blue,443820
30,blue,no,last-month,male,1697736141378,1470,27,id3_v2_b6_r7.jpg,3,7,6,2,1746,red,Netscape,1470,956,MacIntel,19-09-23,19:21:26,blue,blue,443820
30,blue,no,last-month,male,1697736141378,1470,28,id9_v1_b7_r5.jpg,9,5,7,1,5134,blue,Netscape,1470,956,MacIntel,19-09-23,19:21:26,blue,blue,443820
30,red,no,last-month,male,1697736141378,1470,29,id2_v2_b5_r6.jpg,2,6,5,2,741,red,Netscape,1470,956,MacIntel,19-09-23,19:21:26,blue,blue,443820
30,red,no,last-month,male,1697736141378,1470,30,id20_v2_b6_r7.jpg,20,7,6,2,2062,red,Netscape,1470,956,MacIntel,19-09-23,19:21:26,blue,blue,443820
30,red,no,last-month,male,1697736141378,1470,31,id22_v2_b7_r6.jpg,22,6,7,2,1385,blue,Netscape,1470,956,MacIntel,19-09-23,19:21:26,blue,blue,443820
30,red,no,last-month,male,1697736141378,1470,32,id15_v1_b6_r8.jpg,15,8,6,1,3827,red,Netscape,1470,956,MacIntel,19-09-23,19:21:26,blue,blue,443820
30,red,no,last-month,male,1697736141378,1470,33,id10_v1_b6_r7.jpg,10,7,6,1,817,red,Netscape,1470,956,MacIntel,19-09-23,19:21:26,blue,blue,443820
30,red,no,last-month,male,1697736141378,1470,34,id17_v2_b5_r6.jpg,17,6,5,2,2348,red,Netscape,1470,956,MacIntel,19-09-23,19:21:26,blue,blue,443820
30,red,no,last-month,male,1697736141378,1470,35,id5_v1_b6_r7.jpg,5,7,6,1,894,red,Netscape,1470,956,MacIntel,19-09-23,19:21:26,blue,blue,443820
30,red,no,last-month,male,1697736141378,1470,36,id12_v2_b6_r7.jpg,12,7,6,2,1763,red,Netscape,1470,956,MacIntel,19-09-23,19:21:26,blue,blue,443820
30,blue,no,last-month,male,1697736141378,1470,37,id16_v1_b6_r7.jpg,16,7,6,1,569,red,Netscape,1470,956,MacIntel,19-09-23,19:21:26,blue,blue,443820
30,red,no,last-month,male,1697736141378,1470,38,id7_v1_b6_r7.jpg,7,7,6,1,1391,red,Netscape,1470,956,MacIntel,19-09-23,19:21:26,blue,blue,443820
30,blue,no,last-month,male,1697736141378,1470,39,id26_v2_b6_r7.jpg,26,7,6,2,1334,red,Netscape,1470,956,MacIntel,19-09-23,19:21:26,blue,blue,443820
30,blue,no,last-month,male,1697736141378,1470,40,id8_v1_b6_r5.jpg,8,5,6,1,1042,blue,Netscape,1470,956,MacIntel,19-09-23,19:21:26,blue,blue,443820
30,blue,no,last-month,male,1697736141378,1470,41,id1_v1_b7_r5.jpg,1,5,7,1,1222,blue,Netscape,1470,956,MacIntel,19-09-23,19:21:26,blue,blue,443820
30,red,no,last-month,male,1697736141378,1470,42,id24_v1_b7_r6.jpg,24,6,7,1,934,blue,Netscape,1470,956,MacIntel,19-09-23,19:21:26,blue,blue,443820
30,red,no,last-month,male,1697736141378,1470,43,id27_v1_b7_r6.jpg,27,6,7,1,659,blue,Netscape,1470,956,MacIntel,19-09-23,19:21:26,blue,blue,443820
30,red,no,last-month,male,1697736141378,1470,44,id28_v1_b6_r7.jpg,28,7,6,1,10622,red,Netscape,1470,956,MacIntel,19-09-23,19:21:26,blue,blue,443820
30,blue,no,last-month,male,1697736141378,1470,45,id9_v2_b5_r7.jpg,9,7,5,2,495,red,Netscape,1470,956,MacIntel,19-09-23,19:21:26,blue,blue,443820
30,red,no,last-month,male,1697736141378,1470,46,id23_v2_b6_r5.jpg,23,5,6,2,457,blue,Netscape,1470,956,MacIntel,19-09-23,19:21:26,blue,blue,443820
30,red,no,last-month,male,1697736141378,1470,47,id3_v1_b7_r6.jpg,3,6,7,1,1421,blue,Netscape,1470,956,MacIntel,19-09-23,19:21:26,blue,blue,443820
30,blue,no,last-month,male,1697736141378,1470,48,id25_v1_b7_r6.jpg,25,6,7,1,1436,blue,Netscape,1470,956,MacIntel,19-09-23,19:21:26,blue,blue,443820
30,red,no,last-month,male,1697736141378,1470,49,id11_v2_b6_r5.jpg,11,5,6,2,1249,blue,Netscape,1470,956,MacIntel,19-09-23,19:21:26,blue,blue,443820
30,red,no,last-month,male,1697736141378,1470,50,id4_v1_b5_r6.jpg,4,6,5,1,581,red,Netscape,1470,956,MacIntel,19-09-23,19:21:26,blue,blue,443820
30,red,no,last-month,male,1697736141378,1470,51,id6_v2_b5_r7.jpg,6,7,5,2,290,red,Netscape,1470,956,MacIntel,19-09-23,19:21:26,blue,blue,443820
30,blue,no,last-month,male,1697736141378,1470,52,id13_v1_b5_r6.jpg,13,6,5,1,605,red,Netscape,1470,956,MacIntel,19-09-23,19:21:26,blue,blue,443820
30,red,no,last-month,male,1697736141378,1470,53,id29_v1_b7_r6.jpg,29,6,7,1,610,blue,Netscape,1470,956,MacIntel,19-09-23,19:21:26,blue,blue,443820
30,blue,no,last-month,male,1697736141378,1470,54,id18_v1_b7_r5.jpg,18,5,7,1,722,blue,Netscape,1470,956,MacIntel,19-09-23,19:21:26,blue,blue,443820
30,red,no,last-month,male,1697736141378,1470,55,id19_v1_b6_r7.jpg,19,7,6,1,367,red,Netscape,1470,956,MacIntel,19-09-23,19:21:26,blue,blue,443820
30,blue,no,last-month,male,1697736141378,1470,56,id21_v2_b7_r6.jpg,21,6,7,2,238,blue,Netscape,1470,956,MacIntel,19-09-23,19:21:26,blue,blue,443820
30,red,no,last-month,male,1697736141378,1470,57,id14_v1_b7_r6.jpg,14,6,7,1,1347,blue,Netscape,1470,956,MacIntel,19-09-23,19:21:26,blue,blue,443820
30,blue,no,last-month,male,1697736141378,1470,58,id30_v1_b7_r6.jpg,30,6,7,1,640,blue,Netscape,1470,956,MacIntel,19-09-23,19:21:26,blue,blue,443820
30,blue,no,last-month,male,1697736141378,1470,59,id2_v1_b6_r5.jpg,2,5,6,1,492,blue,Netscape,1470,956,MacIntel,19-09-23,19:21:26,blue,blue,443820
42,blue,no,more,male,1697738559682,384,0,id17_v1_b6_r5.jpg,17,5,6,1,1862,blue,Netscape,384,824,Linux aarch64,19-09-23,21:02:17,other,other,443885
42,blue,no,more,male,1697738559682,384,1,id10_v2_b7_r6.jpg,10,6,7,2,857,blue,Netscape,384,824,Linux aarch64,19-09-23,21:02:17,other,other,443885
42,blue,no,more,male,1697738559682,384,2,id12_v1_b7_r6.jpg,12,6,7,1,1141,blue,Netscape,384,824,Linux aarch64,19-09-23,21:02:17,other,other,443885
42,red,no,more,male,1697738559682,384,3,id20_v1_b7_r6.jpg,20,6,7,1,1427,blue,Netscape,384,824,Linux aarch64,19-09-23,21:02:17,other,other,443885
42,red,no,more,male,1697738559682,384,4,id5_v2_b7_r6.jpg,5,6,7,2,851,blue,Netscape,384,824,Linux aarch64,19-09-23,21:02:17,other,other,443885
42,red,no,more,male,1697738559682,384,5,id22_v1_b6_r7.jpg,22,7,6,1,669,red,Netscape,384,824,Linux aarch64,19-09-23,21:02:17,other,other,443885
42,red,no,more,male,1697738559682,384,6,id8_v2_b5_r6.jpg,8,6,5,2,1558,red,Netscape,384,824,Linux aarch64,19-09-23,21:02:17,other,other,443885
42,blue,no,more,male,1697738559682,384,7,id7_v2_b7_r6.jpg,7,6,7,2,1091,blue,Netscape,384,824,Linux aarch64,19-09-23,21:02:17,other,other,443885
42,red,no,more,male,1697738559682,384,8,id1_v2_b5_r7.jpg,1,7,5,2,675,red,Netscape,384,824,Linux aarch64,19-09-23,21:02:17,other,other,443885
42,blue,no,more,male,1697738559682,384,9,id15_v2_b8_r6.jpg,15,6,8,2,734,blue,Netscape,384,824,Linux aarch64,19-09-23,21:02:17,other,other,443885
42,blue,no,more,male,1697738559682,384,10,id24_v2_b6_r7.jpg,24,7,6,2,1494,red,Netscape,384,824,Linux aarch64,19-09-23,21:02:17,other,other,443885
42,red,no,more,male,1697738559682,384,11,id26_v1_b7_r6.jpg,26,6,7,1,885,blue,Netscape,384,824,Linux aarch64,19-09-23,21:02:17,other,other,443885
42,red,no,more,male,1697738559682,384,12,id27_v2_b6_r7.jpg,27,7,6,2,1052,red,Netscape,384,824,Linux aarch64,19-09-23,21:02:17,other,other,443885
42,red,no,more,male,1697738559682,384,13,id16_v2_b7_r6.jpg,16,6,7,2,610,blue,Netscape,384,824,Linux aarch64,19-09-23,21:02:17,other,other,443885
42,red,no,more,male,1697738559682,384,14,id28_v2_b7_r6.jpg,28,6,7,2,1385,blue,Netscape,384,824,Linux aarch64,19-09-23,21:02:17,other,other,443885
42,blue,no,more,male,1697738559682,384,15,id6_v1_b7_r5.jpg,6,5,7,1,675,blue,Netscape,384,824,Linux aarch64,19-09-23,21:02:17,other,other,443885
42,red,no,more,male,1697738559682,384,16,id23_v1_b5_r6.jpg,23,6,5,1,1226,red,Netscape,384,824,Linux aarch64,19-09-23,21:02:17,other,other,443885
42,blue,no,more,male,1697738559682,384,17,id19_v2_b7_r6.jpg,19,6,7,2,934,blue,Netscape,384,824,Linux aarch64,19-09-23,21:02:17,other,other,443885
42,blue,no,more,male,1697738559682,384,18,id11_v1_b5_r6.jpg,11,6,5,1,1963,red,Netscape,384,824,Linux aarch64,19-09-23,21:02:17,other,other,443885
42,red,no,more,male,1697738559682,384,19,id21_v1_b6_r7.jpg,21,7,6,1,794,red,Netscape,384,824,Linux aarch64,19-09-23,21:02:17,other,other,443885
42,red,no,more,male,1697738559682,384,20,id18_v2_b5_r7.jpg,18,7,5,2,976,red,Netscape,384,824,Linux aarch64,19-09-23,21:02:17,other,other,443885
42,blue,no,more,male,1697738559682,384,21,id13_v2_b6_r5.jpg,13,5,6,2,1335,blue,Netscape,384,824,Linux aarch64,19-09-23,21:02:17,other,other,443885
42,blue,no,more,male,1697738559682,384,22,id30_v2_b6_r7.jpg,30,7,6,2,1599,red,Netscape,384,824,Linux aarch64,19-09-23,21:02:17,other,other,443885
42,red,no,more,male,1697738559682,384,23,id4_v2_b6_r5.jpg,4,5,6,2,1271,blue,Netscape,384,824,Linux aarch64,19-09-23,21:02:17,other,other,443885
42,blue,no,more,male,1697738559682,384,24,id29_v2_b6_r7.jpg,29,7,6,2,830,red,Netscape,384,824,Linux aarch64,19-09-23,21:02:17,other,other,443885
42,red,no,more,male,1697738559682,384,25,id14_v2_b6_r7.jpg,14,7,6,2,742,red,Netscape,384,824,Linux aarch64,19-09-23,21:02:17,other,other,443885
42,red,no,more,male,1697738559682,384,26,id25_v2_b6_r7.jpg,25,7,6,2,831,red,Netscape,384,824,Linux aarch64,19-09-23,21:02:17,other,other,443885
42,blue,no,more,male,1697738559682,384,27,id3_v2_b6_r7.jpg,3,7,6,2,1003,red,Netscape,384,824,Linux aarch64,19-09-23,21:02:17,other,other,443885
42,blue,no,more,male,1697738559682,384,28,id9_v1_b7_r5.jpg,9,5,7,1,1155,blue,Netscape,384,824,Linux aarch64,19-09-23,21:02:17,other,other,443885
42,red,no,more,male,1697738559682,384,29,id2_v2_b5_r6.jpg,2,6,5,2,909,red,Netscape,384,824,Linux aarch64,19-09-23,21:02:17,other,other,443885
42,blue,no,more,male,1697738559682,384,30,id20_v2_b6_r7.jpg,20,7,6,2,1060,red,Netscape,384,824,Linux aarch64,19-09-23,21:02:17,other,other,443885
42,blue,no,more,male,1697738559682,384,31,id22_v2_b7_r6.jpg,22,6,7,2,1208,blue,Netscape,384,824,Linux aarch64,19-09-23,21:02:17,other,other,443885
42,blue,no,more,male,1697738559682,384,32,id15_v1_b6_r8.jpg,15,8,6,1,1437,red,Netscape,384,824,Linux aarch64,19-09-23,21:02:17,other,other,443885
42,red,no,more,male,1697738559682,384,33,id10_v1_b6_r7.jpg,10,7,6,1,921,red,Netscape,384,824,Linux aarch64,19-09-23,21:02:17,other,other,443885
42,red,no,more,male,1697738559682,384,34,id17_v2_b5_r6.jpg,17,6,5,2,2312,red,Netscape,384,824,Linux aarch64,19-09-23,21:02:17,other,other,443885
42,blue,no,more,male,1697738559682,384,35,id5_v1_b6_r7.jpg,5,7,6,1,2172,red,Netscape,384,824,Linux aarch64,19-09-23,21:02:17,other,other,443885
42,red,no,more,male,1697738559682,384,36,id12_v2_b6_r7.jpg,12,7,6,2,710,red,Netscape,384,824,Linux aarch64,19-09-23,21:02:17,other,other,443885
42,blue,no,more,male,1697738559682,384,37,id16_v1_b6_r7.jpg,16,7,6,1,646,red,Netscape,384,824,Linux aarch64,19-09-23,21:02:17,other,other,443885
42,red,no,more,male,1697738559682,384,38,id7_v1_b6_r7.jpg,7,7,6,1,793,red,Netscape,384,824,Linux aarch64,19-09-23,21:02:17,other,other,443885
42,blue,no,more,male,1697738559682,384,39,id26_v2_b6_r7.jpg,26,7,6,2,992,red,Netscape,384,824,Linux aarch64,19-09-23,21:02:17,other,other,443885
42,blue,no,more,male,1697738559682,384,40,id8_v1_b6_r5.jpg,8,5,6,1,986,blue,Netscape,384,824,Linux aarch64,19-09-23,21:02:17,other,other,443885
42,blue,no,more,male,1697738559682,384,41,id1_v1_b7_r5.jpg,1,5,7,1,578,blue,Netscape,384,824,Linux aarch64,19-09-23,21:02:17,other,other,443885
42,red,no,more,male,1697738559682,384,42,id24_v1_b7_r6.jpg,24,6,7,1,1974,blue,Netscape,384,824,Linux aarch64,19-09-23,21:02:17,other,other,443885
42,blue,no,more,male,1697738559682,384,43,id27_v1_b7_r6.jpg,27,6,7,1,715,blue,Netscape,384,824,Linux aarch64,19-09-23,21:02:17,other,other,443885
42,red,no,more,male,1697738559682,384,44,id28_v1_b6_r7.jpg,28,7,6,1,668,red,Netscape,384,824,Linux aarch64,19-09-23,21:02:17,other,other,443885
42,red,no,more,male,1697738559682,384,45,id9_v2_b5_r7.jpg,9,7,5,2,1054,red,Netscape,384,824,Linux aarch64,19-09-23,21:02:17,other,other,443885
42,blue,no,more,male,1697738559682,384,46,id23_v2_b6_r5.jpg,23,5,6,2,2522,blue,Netscape,384,824,Linux aarch64,19-09-23,21:02:17,other,other,443885
42,blue,no,more,male,1697738559682,384,47,id3_v1_b7_r6.jpg,3,6,7,1,661,blue,Netscape,384,824,Linux aarch64,19-09-23,21:02:17,other,other,443885
42,blue,no,more,male,1697738559682,384,48,id25_v1_b7_r6.jpg,25,6,7,1,1017,blue,Netscape,384,824,Linux aarch64,19-09-23,21:02:17,other,other,443885
42,blue,no,more,male,1697738559682,384,49,id11_v2_b6_r5.jpg,11,5,6,2,1461,blue,Netscape,384,824,Linux aarch64,19-09-23,21:02:17,other,other,443885
42,red,no,more,male,1697738559682,384,50,id4_v1_b5_r6.jpg,4,6,5,1,767,red,Netscape,384,824,Linux aarch64,19-09-23,21:02:17,other,other,443885
42,red,no,more,male,1697738559682,384,51,id6_v2_b5_r7.jpg,6,7,5,2,645,red,Netscape,384,824,Linux aarch64,19-09-23,21:02:17,other,other,443885
42,blue,no,more,male,1697738559682,384,52,id13_v1_b5_r6.jpg,13,6,5,1,963,red,Netscape,384,824,Linux aarch64,19-09-23,21:02:17,other,other,443885
42,red,no,more,male,1697738559682,384,53,id29_v1_b7_r6.jpg,29,6,7,1,2981,blue,Netscape,384,824,Linux aarch64,19-09-23,21:02:17,other,other,443885
42,blue,no,more,male,1697738559682,384,54,id18_v1_b7_r5.jpg,18,5,7,1,1453,blue,Netscape,384,824,Linux aarch64,19-09-23,21:02:17,other,other,443885
42,red,no,more,male,1697738559682,384,55,id19_v1_b6_r7.jpg,19,7,6,1,837,red,Netscape,384,824,Linux aarch64,19-09-23,21:02:17,other,other,443885
42,red,no,more,male,1697738559682,384,56,id21_v2_b7_r6.jpg,21,6,7,2,1005,blue,Netscape,384,824,Linux aarch64,19-09-23,21:02:17,other,other,443885
42,red,no,more,male,1697738559682,384,57,id14_v1_b7_r6.jpg,14,6,7,1,3603,blue,Netscape,384,824,Linux aarch64,19-09-23,21:02:17,other,other,443885
42,red,no,more,male,1697738559682,384,58,id30_v1_b7_r6.jpg,30,6,7,1,1157,blue,Netscape,384,824,Linux aarch64,19-09-23,21:02:17,other,other,443885
42,blue,no,more,male,1697738559682,384,59,id2_v1_b6_r5.jpg,2,5,6,1,561,blue,Netscape,384,824,Linux aarch64,19-09-23,21:02:17,other,other,443885
24,blue,no,more,male,1697740029644,1780,0,id17_v1_b6_r5.jpg,17,5,6,1,1634,blue,Netscape,1800,1169,MacIntel,19-09-23,20:26:19,other,blue,443927
24,blue,no,more,male,1697740029644,1780,1,id10_v2_b7_r6.jpg,10,6,7,2,588,blue,Netscape,1800,1169,MacIntel,19-09-23,20:26:19,other,blue,443927
24,blue,no,more,male,1697740029644,1780,2,id12_v1_b7_r6.jpg,12,6,7,1,576,blue,Netscape,1800,1169,MacIntel,19-09-23,20:26:19,other,blue,443927
24,blue,no,more,male,1697740029644,1780,3,id20_v1_b7_r6.jpg,20,6,7,1,849,blue,Netscape,1800,1169,MacIntel,19-09-23,20:26:19,other,blue,443927
24,red,no,more,male,1697740029644,1780,4,id5_v2_b7_r6.jpg,5,6,7,2,755,blue,Netscape,1800,1169,MacIntel,19-09-23,20:26:19,other,blue,443927
24,red,no,more,male,1697740029644,1780,5,id22_v1_b6_r7.jpg,22,7,6,1,894,red,Netscape,1800,1169,MacIntel,19-09-23,20:26:19,other,blue,443927
24,red,no,more,male,1697740029644,1780,6,id8_v2_b5_r6.jpg,8,6,5,2,460,red,Netscape,1800,1169,MacIntel,19-09-23,20:26:19,other,blue,443927
24,blue,no,more,male,1697740029644,1780,7,id7_v2_b7_r6.jpg,7,6,7,2,826,blue,Netscape,1800,1169,MacIntel,19-09-23,20:26:19,other,blue,443927
24,red,no,more,male,1697740029644,1780,8,id1_v2_b5_r7.jpg,1,7,5,2,572,red,Netscape,1800,1169,MacIntel,19-09-23,20:26:19,other,blue,443927
24,red,no,more,male,1697740029644,1780,9,id15_v2_b8_r6.jpg,15,6,8,2,833,blue,Netscape,1800,1169,MacIntel,19-09-23,20:26:19,other,blue,443927
24,blue,no,more,male,1697740029644,1780,10,id24_v2_b6_r7.jpg,24,7,6,2,31521,red,Netscape,1800,1169,MacIntel,19-09-23,20:26:19,other,blue,443927
24,blue,no,more,male,1697740029644,1780,11,id26_v1_b7_r6.jpg,26,6,7,1,690,blue,Netscape,1800,1169,MacIntel,19-09-23,20:26:19,other,blue,443927
24,blue,no,more,male,1697740029644,1780,12,id27_v2_b6_r7.jpg,27,7,6,2,724,red,Netscape,1800,1169,MacIntel,19-09-23,20:26:19,other,blue,443927
24,red,no,more,male,1697740029644,1780,13,id16_v2_b7_r6.jpg,16,6,7,2,633,blue,Netscape,1800,1169,MacIntel,19-09-23,20:26:19,other,blue,443927
24,red,no,more,male,1697740029644,1780,14,id28_v2_b7_r6.jpg,28,6,7,2,768,blue,Netscape,1800,1169,MacIntel,19-09-23,20:26:19,other,blue,443927
24,blue,no,more,male,1697740029644,1780,15,id6_v1_b7_r5.jpg,6,5,7,1,404,blue,Netscape,1800,1169,MacIntel,19-09-23,20:26:19,other,blue,443927
24,red,no,more,male,1697740029644,1780,16,id23_v1_b5_r6.jpg,23,6,5,1,1289,red,Netscape,1800,1169,MacIntel,19-09-23,20:26:19,other,blue,443927
24,blue,no,more,male,1697740029644,1780,17,id19_v2_b7_r6.jpg,19,6,7,2,511,blue,Netscape,1800,1169,MacIntel,19-09-23,20:26:19,other,blue,443927
24,red,no,more,male,1697740029644,1780,18,id11_v1_b5_r6.jpg,11,6,5,1,846,red,Netscape,1800,1169,MacIntel,19-09-23,20:26:19,other,blue,443927
24,blue,no,more,male,1697740029644,1780,19,id21_v1_b6_r7.jpg,21,7,6,1,461,red,Netscape,1800,1169,MacIntel,19-09-23,20:26:19,other,blue,443927
24,red,no,more,male,1697740029644,1780,20,id18_v2_b5_r7.jpg,18,7,5,2,1029,red,Netscape,1800,1169,MacIntel,19-09-23,20:26:19,other,blue,443927
24,red,no,more,male,1697740029644,1780,21,id13_v2_b6_r5.jpg,13,5,6,2,870,blue,Netscape,1800,1169,MacIntel,19-09-23,20:26:19,other,blue,443927
24,red,no,more,male,1697740029644,1780,22,id30_v2_b6_r7.jpg,30,7,6,2,821,red,Netscape,1800,1169,MacIntel,19-09-23,20:26:19,other,blue,443927
24,blue,no,more,male,1697740029644,1780,23,id4_v2_b6_r5.jpg,4,5,6,2,755,blue,Netscape,1800,1169,MacIntel,19-09-23,20:26:19,other,blue,443927
24,blue,no,more,male,1697740029644,1780,24,id29_v2_b6_r7.jpg,29,7,6,2,638,red,Netscape,1800,1169,MacIntel,19-09-23,20:26:19,other,blue,443927
24,red,no,more,male,1697740029644,1780,25,id14_v2_b6_r7.jpg,14,7,6,2,666,red,Netscape,1800,1169,MacIntel,19-09-23,20:26:19,other,blue,443927
24,blue,no,more,male,1697740029644,1780,26,id25_v2_b6_r7.jpg,25,7,6,2,647,red,Netscape,1800,1169,MacIntel,19-09-23,20:26:19,other,blue,443927
24,blue,no,more,male,1697740029644,1780,27,id3_v2_b6_r7.jpg,3,7,6,2,387,red,Netscape,1800,1169,MacIntel,19-09-23,20:26:19,other,blue,443927
24,red,no,more,male,1697740029644,1780,28,id9_v1_b7_r5.jpg,9,5,7,1,466,blue,Netscape,1800,1169,MacIntel,19-09-23,20:26:19,other,blue,443927
24,red,no,more,male,1697740029644,1780,29,id2_v2_b5_r6.jpg,2,6,5,2,475,red,Netscape,1800,1169,MacIntel,19-09-23,20:26:19,other,blue,443927
24,red,no,more,male,1697740029644,1780,30,id20_v2_b6_r7.jpg,20,7,6,2,675,red,Netscape,1800,1169,MacIntel,19-09-23,20:26:19,other,blue,443927
